"Time (s)","Linear Acceleration x (m/s^2)","Linear Acceleration y (m/s^2)","Linear Acceleration z (m/s^2)"
2.300900500E-2,4.784584045E-3,-4.082345963E-2,-5.305290222E-2
3.088254100E-2,1.436966658E-2,-5.287313461E-2,1.165246964E-2
3.878659300E-2,-4.931181669E-2,-7.997608185E-2,-6.171226501E-3
4.672116400E-2,-1.919332147E-1,-1.060667038E-1,-5.954551697E-2
5.471676900E-2,-2.431666255E-1,-6.519842148E-2,-2.375698090E-1
6.265133900E-2,-8.786541224E-2,-1.375093460E-1,-3.310236931E-1
7.061642700E-2,1.008212566E-1,-2.385711670E-1,-3.589935303E-1
7.858151500E-2,1.193373203E-1,-2.076425552E-1,-2.619118690E-1
8.648556800E-2,2.118289471E-2,-1.909613609E-1,-2.187542915E-1
9.445065600E-2,-1.472204924E-2,-1.024537086E-1,-2.569999695E-1
1.023547090E-1,-1.239639521E-2,-1.324353218E-1,-2.964658737E-1
1.102282440E-1,-1.717710495E-2,-1.420884132E-1,-2.245788574E-1
1.181322960E-1,-1.664564610E-1,-9.722185135E-2,-2.127380371E-1
1.260363490E-1,-2.132112980E-1,-8.799362183E-2,-3.992872238E-1
1.339709190E-1,-1.684644222E-1,-8.111476898E-2,-3.828372955E-1
1.419054900E-1,-7.212936878E-2,-8.992004395E-2,-2.692332268E-1
1.497790250E-1,-1.639720798E-1,-1.306109428E-1,-2.209882736E-1
1.577135950E-1,-1.990404725E-1,-8.683109283E-2,-9.272527695E-2
1.656481660E-1,-8.199846745E-2,2.267408371E-2,2.354822159E-1
1.736132530E-1,2.833498120E-1,-4.224872589E-2,4.357242584E-1
1.815173060E-1,6.307833791E-1,-2.130622864E-1,5.087575912E-1
1.894518760E-1,6.376071572E-1,-3.204264641E-1,3.088989258E-1
1.974169640E-1,1.664623022E-1,-2.121987343E-1,3.062782288E-1
2.053515350E-1,-2.106159329E-1,-3.467130661E-2,4.051928520E-1
2.133471400E-1,-3.842636943E-1,7.343769073E-2,6.036491394E-1
2.212511930E-1,-3.971000910E-1,1.510648727E-1,7.984929085E-1
2.291247280E-1,-2.857788205E-1,2.247653008E-1,7.926263809E-1
2.370287810E-1,-1.764689684E-1,1.689176559E-1,5.892229080E-1
2.449328340E-1,-6.942129135E-2,3.173732758E-2,3.908886909E-1
2.528674040E-1,-7.062613964E-3,9.452962875E-2,1.223583221E-1
2.608324920E-1,-1.547138095E-1,2.355241776E-2,-9.698867798E-4
2.687365440E-1,-2.221079469E-1,5.058002472E-2,5.468177795E-2
2.766711150E-1,-4.491577744E-1,-8.503198624E-2,2.610988617E-1
2.846056850E-1,-1.093701720E-1,2.516169548E-1,4.007501602E-1
2.925707730E-1,-7.724416256E-2,2.650122643E-1,2.397251129E-1
3.005053430E-1,8.976185322E-2,6.397628784E-2,2.816157341E-1
3.083788780E-1,3.005509377E-1,7.733774185E-2,-1.906943321E-1
3.163134490E-1,2.179130316E-1,5.333375931E-2,-8.975505829E-3
3.242480190E-1,2.228491902E-1,-7.680892944E-2,8.800601959E-2
3.322131070E-1,2.708076835E-1,5.428409576E-2,1.678023338E-1
3.401476770E-1,2.013758421E-1,-5.584955215E-2,1.941380501E-1
3.480517300E-1,2.157388330E-1,-5.140924454E-2,2.087855339E-1
3.559252650E-1,2.757158875E-1,-8.358192444E-2,1.423149109E-1
3.638598350E-1,4.786892533E-1,-3.850822449E-1,1.512722969E-1
3.717944060E-1,7.413602471E-1,-4.300894737E-1,-2.536425591E-1
3.797289760E-1,6.660795212E-1,-3.085198402E-1,1.778602600E-2
3.876330290E-1,6.129891276E-1,-1.307744980E-1,1.664085388E-1
3.955370820E-1,4.565581083E-1,1.020908356E-3,-2.659749985E-1
4.034716520E-1,2.240713239E-1,6.221628189E-2,9.175300598E-2
4.114367400E-1,3.552835286E-1,-2.107510567E-1,4.593753815E-1
4.193713100E-1,5.588625669E-1,-4.389348030E-1,4.876394272E-1
4.272448450E-1,8.933652639E-1,-3.865489960E-1,6.345624924E-1
4.352099330E-1,5.907016397E-1,-2.873167992E-1,8.349084854E-1
4.431139860E-1,4.417072833E-1,-1.387076378E-1,1.069648743E0
4.510790740E-1,3.383044600E-1,-5.976390839E-2,1.031037331E0
4.589526090E-1,1.192616522E-1,-1.031785011E-1,7.484540939E-1
4.668566620E-1,3.631186485E-2,-5.818176270E-2,4.890041351E-1
4.747607140E-1,1.324394345E-2,-6.657695770E-2,1.620006561E-1
4.826342500E-1,8.865529299E-2,-7.337522507E-2,-4.999160767E-2
4.905993370E-1,1.790915877E-1,-8.424139023E-2,-1.131296158E-1
4.985339080E-1,1.342355460E-1,-6.533908844E-2,-1.956462860E-2
5.064379600E-1,2.362472713E-1,-4.449319839E-2,3.356075287E-2
5.143725310E-1,2.795128524E-1,1.456785202E-2,1.991720200E-1
5.222765840E-1,1.191091239E-1,1.624937057E-1,2.178068161E-1
5.302416710E-1,-5.113944411E-2,3.111290932E-1,3.693857193E-1
5.381457240E-1,-1.874851584E-1,4.209051132E-1,3.442640305E-1
5.460802940E-1,-3.305862844E-1,5.323734283E-1,3.162994385E-1
5.540148650E-1,-5.937412977E-1,6.496510506E-1,3.341178894E-1
5.619494350E-1,-7.815401554E-1,7.607026100E-1,4.390687943E-1
5.699450410E-1,-8.624923229E-1,8.127179146E-1,6.432151794E-1
5.778185760E-1,-7.186748385E-1,8.088746071E-1,8.909387589E-1
5.857531460E-1,-5.308037996E-1,7.862930298E-1,1.182929039E0
5.936571990E-1,-3.363999128E-1,7.638835907E-1,1.270281792E0
6.015612510E-1,-8.741101623E-2,6.452183723E-1,1.127080917E0
6.095263390E-1,3.273515999E-1,4.704055786E-1,7.728853226E-1
6.174303920E-1,5.804582834E-1,2.004542351E-1,4.437685013E-1
6.253039270E-1,7.377545238E-1,2.997446060E-2,1.537141800E-1
6.332384980E-1,5.573754311E-1,-7.264280319E-2,-8.495807648E-2
6.411425500E-1,1.874453723E-1,-2.053451538E-2,-1.457767487E-1
6.491381560E-1,-9.527586401E-2,3.327512741E-2,-1.509962082E-1
6.570727260E-1,-3.168992400E-1,-3.950595856E-3,-2.949934006E-1
6.649767790E-1,-4.574787021E-1,-7.106304169E-3,-4.010138512E-1
6.728808320E-1,-5.149079561E-1,2.588701248E-2,-3.864769936E-1
6.807848840E-1,-4.831546247E-1,1.530599594E-2,-3.353376389E-1
6.887499720E-1,-5.812830925E-1,1.026396751E-1,-1.661014557E-1
6.966540250E-1,-7.257747650E-1,1.268219948E-1,-3.998374939E-2
7.045275600E-1,-5.911886692E-1,1.391868591E-1,1.785182953E-2
7.124010950E-1,-1.381480098E-1,1.609945297E-2,1.334190369E-2
7.203356660E-1,1.951859295E-1,-3.883743286E-2,2.191905975E-1
7.283007530E-1,3.510385752E-1,-2.753353119E-2,3.084497452E-1
7.362658410E-1,6.010323167E-1,-8.663129807E-2,2.042064667E-1
7.441393760E-1,9.188699722E-1,-2.592868805E-1,-3.516263962E-1
7.520739470E-1,4.050880075E-1,-2.086825371E-1,-8.767685890E-1
7.600085170E-1,1.669740528E-1,-1.032023430E-1,-5.457868576E-1
7.679736050E-1,-9.002929926E-2,-6.626367569E-2,-9.440083504E-1
7.758776580E-1,-2.959066629E-1,5.858421326E-3,-9.034938812E-1
7.838122280E-1,-3.766493797E-1,6.468343735E-2,-7.103066444E-1
7.917162810E-1,-2.830158472E-1,1.214418411E-1,-5.387907028E-1
7.996203340E-1,-1.849645972E-1,9.764051437E-2,-3.127551079E-1
8.075854210E-1,-5.147075653E-2,1.704525948E-1,-1.041345596E-1
8.154894740E-1,1.421832293E-1,2.039251328E-1,1.585025787E-1
8.233630090E-1,2.864158750E-1,1.820178032E-1,3.981170654E-1
8.313280970E-1,4.362646937E-1,1.594910622E-1,5.311203003E-1
8.392321500E-1,3.906821609E-1,1.694359779E-1,6.919765472E-1
8.471972380E-1,4.055564106E-1,1.434793472E-1,6.805000305E-1
8.550707730E-1,4.847973883E-1,6.162214279E-2,6.528940201E-1
8.629748260E-1,5.387877822E-1,-3.134822845E-2,5.785102844E-1
8.708788780E-1,5.151153207E-1,6.278991699E-3,4.897623062E-1
8.787829310E-1,2.161401808E-1,2.519130707E-3,3.049478531E-1
8.867480190E-1,-6.911799312E-2,1.101975441E-1,-4.992103577E-2
8.946520720E-1,-2.411582768E-1,1.694498062E-1,-3.884606361E-1
9.025561250E-1,-2.714959979E-1,1.786999702E-1,-6.266698837E-1
9.104296600E-1,-1.710239351E-1,1.634149551E-1,-6.674051285E-1
9.183337120E-1,-2.397724390E-1,2.762432098E-1,-5.070567131E-1
9.262988000E-1,7.159411907E-4,2.554640770E-1,-1.834802628E-1
9.342333710E-1,4.000636935E-2,2.417712212E-1,2.103872299E-1
9.421069060E-1,1.200345010E-1,2.580204010E-1,5.343217850E-1
9.500414760E-1,2.110700309E-1,2.020411491E-1,6.700220108E-1
9.579455290E-1,1.891596913E-1,1.425094604E-1,6.934833527E-1
9.658800990E-1,1.868927032E-1,7.076358795E-2,5.879192352E-1
9.737841520E-1,2.120780945E-1,2.367544174E-2,2.703685760E-1
9.816576870E-1,1.486313492E-1,-3.983402252E-2,1.883983612E-2
9.895617400E-1,4.724478722E-2,-7.163524628E-3,-2.624645233E-1
9.974352750E-1,-1.312419772E-2,7.023811340E-4,-3.467974663E-1
1.005430880E0,-1.386057138E-1,6.267833710E-2,-2.811241150E-1
1.013334933E0,-9.926220775E-2,2.211999893E-2,-7.119083405E-2
1.021208468E0,-1.447848678E-1,6.120109558E-2,1.391906738E-1
1.029112521E0,-9.794235229E-2,7.082128525E-2,2.669878006E-1
1.037016574E0,-3.194230795E-2,1.604080200E-2,2.796182632E-1
1.044951144E0,-9.140288830E-2,-3.177690506E-2,2.899608612E-1
1.052885714E0,-1.361382306E-1,-1.126146317E-2,1.765117645E-1
1.060759250E0,-1.988465190E-1,2.476739883E-2,9.023094177E-2
1.068724337E0,-2.092667222E-1,4.582881927E-2,7.144165039E-2
1.076628390E0,-3.006860614E-2,1.177024841E-2,4.073524475E-2
1.084562960E0,1.032812893E-1,-6.755352020E-2,-1.885890961E-2
1.092497531E0,2.080869526E-1,-1.247687340E-1,-3.330802917E-2
1.100371066E0,3.112888932E-1,-2.049489021E-1,1.869487762E-2
1.108305636E0,3.606940210E-1,-2.648291588E-1,7.720851898E-2
1.116209689E0,2.910841107E-1,-3.000016212E-1,1.952199936E-1
1.124144259E0,3.638291359E-1,-3.063454628E-1,2.868862152E-1
1.132139865E0,5.098620057E-1,-3.508882523E-1,2.276191711E-1
1.140043918E0,5.652544498E-1,-3.295702934E-1,3.264522552E-2
1.147917453E0,6.843317151E-1,-3.841342926E-1,-8.595085144E-2
1.155852023E0,7.606070042E-1,-3.507761955E-1,-5.551528931E-2
1.163817111E0,5.150191784E-1,-1.767697334E-1,1.024456024E-1
1.171751681E0,2.216255665E-2,7.111024857E-2,2.464361191E-1
1.179655734E0,-4.050556421E-1,3.113923073E-1,4.385852814E-1
1.187559787E0,-8.125936985E-1,5.247769356E-1,5.040311813E-1
1.195463839E0,-9.019643664E-1,6.363496780E-1,3.981552124E-1
1.203459445E0,-7.271288633E-1,6.370048523E-1,3.938913345E-1
1.211363498E0,-6.265239120E-1,6.008553505E-1,5.390729904E-1
1.219267550E0,-1.335435808E-1,4.237256050E-1,7.732334137E-1
1.227171603E0,1.059585214E-1,2.990651131E-1,9.291296005E-1
1.235045138E0,3.738857210E-1,5.648422241E-2,5.778408051E-1
1.243010226E0,1.269334078E0,-4.173665047E-1,-1.412181854E-1
1.250944796E0,1.335909843E0,-7.865862846E-1,-7.252349854E-1
1.258818332E0,4.097307026E-1,-4.470520020E-1,-1.689462662E-1
1.266783419E0,1.682012379E-1,-2.131991386E-1,-1.299009323E-1
1.274717990E0,-7.447493076E-2,-3.773894310E-1,-2.704863548E-1
1.282713595E0,1.438471377E-1,-2.978553772E-1,-6.029915810E-1
1.290617648E0,1.985812783E-1,-3.944115639E-1,-1.001644135E0
1.298521701E0,3.189814389E-1,-3.718466759E-1,-1.190761089E0
1.306425753E0,3.199283779E-1,-3.505296707E-1,-1.154776573E0
1.314299289E0,2.036445141E-1,-2.946553230E-1,-9.574513435E-1
1.322264376E0,1.542993188E-1,-2.227749825E-1,-7.461080551E-1
1.330168429E0,1.190012097E-1,-1.620316505E-1,-4.867339134E-1
1.338133517E0,1.500481963E-1,-1.487088203E-1,-2.677102089E-1
1.346037570E0,2.252504528E-1,-1.077008247E-1,-6.638145447E-2
1.353941623E0,2.444960177E-1,-8.251953125E-2,7.446193695E-2
1.361937228E0,2.306375802E-1,-3.813505173E-2,1.650714874E-1
1.369871798E0,2.458927333E-1,2.038145065E-2,1.840753555E-1
1.377745334E0,1.756874323E-1,5.178976059E-2,1.869096756E-1
1.385710421E0,1.349050999E-1,7.317972183E-2,2.380046844E-1
1.393644992E0,4.827672243E-2,9.335136414E-2,3.778724670E-1
1.401640597E0,1.572543383E-2,1.068372726E-1,5.114831924E-1
1.409575168E0,-4.876267910E-2,1.192407608E-1,6.588277817E-1
1.417479220E0,-2.602476478E-1,1.549687386E-1,1.004851341E0
1.425352755E0,-4.683954716E-1,2.935791016E-1,1.454355240E0
1.433287326E0,-5.797561407E-1,3.676757812E-1,1.472033501E0
1.441252414E0,-1.127116680E0,5.017714500E-1,2.149914742E0
1.449186984E0,-4.643277526E-1,6.028375626E-1,1.209950447E0
1.457060519E0,-3.588285446E-1,2.944912910E-1,6.670761108E-2
1.464964572E0,-2.532047629E-1,2.077007294E-1,-2.693376541E-1
1.472868625E0,-6.251384616E-1,1.208825111E-1,-1.894321442E-1
1.480803195E0,-6.917713881E-1,4.237337112E-1,-2.199678421E-1
1.488768283E0,-8.974881172E-1,3.293342590E-1,-1.208353043E-1
1.496641818E0,-8.728913069E-1,3.572659492E-1,2.735967636E-1
1.504545871E0,-7.144050002E-1,3.598718643E-1,5.596570969E-1
1.512449923E0,-5.312077999E-1,2.392320633E-1,4.039678574E-1
1.520415011E0,-3.433164954E-1,1.511416435E-1,2.174768448E-1
1.528319064E0,-2.547363043E-1,5.066776276E-2,1.855182648E-2
1.536223117E0,-3.393733501E-2,7.065582275E-2,-1.458768845E-1
1.544096652E0,-2.467178106E-1,1.108622551E-1,7.859611511E-2
1.552000705E0,1.016557217E-3,4.232835770E-2,5.438613892E-2
1.559965793E0,2.280510664E-1,-1.620941162E-1,-4.090404510E-2
1.567900363E0,2.147219181E-1,-2.153115273E-1,1.641368866E-2
1.575804416E0,2.564937472E-1,-1.905117035E-1,-1.390085220E-1
1.583708468E0,1.583202481E-1,-2.077555656E-1,-5.115852356E-1
1.591612521E0,5.406594276E-2,-1.554317474E-1,-6.111721992E-1
1.599608126E0,-2.380186319E-2,-1.192212105E-1,-4.708523750E-1
1.607542697E0,-6.703972816E-2,-6.437253952E-2,-2.001876831E-1
1.615416232E0,4.310363531E-2,-1.575565338E-2,3.609275818E-2
1.623320285E0,2.755358815E-1,-2.455139160E-2,1.619472504E-1
1.631224337E0,4.852808714E-1,-1.339154243E-1,1.320543289E-1
1.639189425E0,5.984522700E-1,-1.925654411E-1,5.391216278E-2
1.647093478E0,5.988734961E-1,-1.998915672E-1,9.240913391E-2
1.654967013E0,6.315233111E-1,-1.797223091E-1,1.013040543E-1
1.662871066E0,5.227980018E-1,-1.182756424E-1,1.768722534E-1
1.670744601E0,4.050893188E-1,-1.329135895E-1,2.378225327E-1
1.678709689E0,5.254282951E-1,-6.047916412E-2,-3.561210632E-2
1.686644259E0,3.849869967E-1,-1.151542664E-1,6.701087952E-2
1.694548312E0,2.381039858E-1,2.689361572E-3,2.055559158E-1
1.702452365E0,1.819455624E-1,6.178855896E-2,1.389818192E-1
1.710386935E0,1.137352586E-1,6.871032715E-2,4.007625580E-2
1.718352023E0,8.202028275E-2,6.787061691E-2,-2.248477936E-2
1.726286593E0,1.608265042E-1,1.751799583E-1,1.541690826E-1
1.734160128E0,-3.788828850E-3,2.245473862E-2,1.723108292E-1
1.742125216E0,1.481544971E-1,1.067123413E-1,3.030653000E-1
1.750029269E0,4.005229473E-2,1.429953575E-1,4.028539658E-1
1.758024875E0,-3.041791916E-2,1.692128181E-1,4.025726318E-1
1.765959445E0,-5.017644167E-2,2.067780495E-1,3.787841797E-1
1.773863498E0,-1.051582694E-1,1.958203316E-1,3.363132477E-1
1.781798068E0,-1.408805847E-1,2.085785866E-1,2.963895798E-1
1.789732638E0,-6.217736006E-2,2.544336319E-1,2.064018250E-1
1.797697726E0,3.483504057E-2,1.970930099E-1,5.183887482E-2
1.805601779E0,4.758614302E-2,1.425423622E-1,2.148151398E-2
1.813536349E0,3.838270903E-2,1.268596649E-1,8.411026001E-2
1.821440402E0,6.834918261E-2,9.892320633E-2,6.057262421E-2
1.829313937E0,5.178058147E-2,5.605030060E-2,-3.213882446E-2
1.837309543E0,8.486175537E-2,4.881668091E-2,-6.966686249E-2
1.845244113E0,1.399671435E-1,4.649066925E-2,-8.327293396E-2
1.853148166E0,7.378959656E-2,4.923248291E-2,1.424512863E-1
1.861021701E0,-2.221179008E-2,9.020328522E-2,3.659620285E-1
1.868925753E0,-1.004587412E-1,1.443457603E-1,3.892078400E-1
1.876890841E0,5.474972725E-2,1.512808800E-1,3.130989075E-1
1.884825412E0,2.606456280E-1,3.975582123E-2,1.446084976E-1
1.892729464E0,2.789128423E-1,-1.669216156E-2,-1.416015625E-2
1.900633517E0,1.263550520E-1,-9.560585022E-4,-9.159564972E-2
1.908568087E0,-4.673314095E-2,4.684972763E-2,-1.599473953E-1
1.916563693E0,-1.344748139E-1,5.442380905E-2,-2.358551025E-1
1.924498263E0,-1.253631115E-1,5.797863007E-3,-2.863507271E-1
1.932371798E0,-6.001615524E-2,-2.966117859E-2,-2.132244110E-1
1.940275851E0,1.149946451E-2,-7.859992981E-2,-1.551237106E-1
1.948179904E0,1.514471173E-1,-9.114837646E-2,-1.357307434E-1
1.956144992E0,9.501343966E-2,-1.106905937E-1,-5.182075500E-2
1.964049044E0,-6.408393383E-3,-6.791877747E-2,2.491664886E-2
1.971922580E0,-1.559948325E-1,-2.905416489E-2,-1.547017574E0
1.979826632E0,-1.120642424E-1,-3.818273544E-2,-6.161088943E-1
1.987700168E0,-8.237063885E-3,-8.299016953E-2,-3.613872528E-1
1.995695773E0,1.504182816E-1,-4.119586945E-2,-3.611841202E-1
2.003630343E0,1.996315122E-1,-4.542827606E-2,1.452741623E-1
2.011564914E0,2.015365958E-1,-9.716510773E-3,8.040056229E-1
2.019468966E0,3.122073412E-1,3.009796143E-2,1.603660583E0
2.027373019E0,7.052799463E-1,-9.113311768E-3,2.138410568E0
2.035338107E0,1.052020550E0,-1.514105797E-1,1.709984779E0
2.043272677E0,7.559295893E-1,-1.952247620E-1,5.211849213E-1
2.051146212E0,3.995480537E-1,-1.306824684E-1,1.412277222E-1
2.059050265E0,4.162824154E-2,-1.207304001E-1,-2.521677017E-1
2.066954318E0,-3.453082442E-1,4.274749756E-2,-5.876307487E-1
2.074919406E0,-5.460925102E-1,1.891746521E-1,-4.691681862E-1
2.082823459E0,-4.835145473E-1,1.543235779E-1,-3.189811707E-1
2.090819064E0,-3.665160537E-1,1.366386414E-1,-2.788476944E-1
2.098723117E0,-3.401839733E-1,1.542291641E-1,-1.133623123E-1
2.106627169E0,-7.203125954E-2,1.631231308E-1,-8.990001678E-2
2.114592257E0,2.197257876E-1,-6.008625031E-3,-6.047248840E-3
2.122496310E0,9.449493885E-2,-2.505064011E-2,3.300952911E-1
2.130400363E0,-1.249916553E-1,1.211934090E-1,7.468557358E-1
2.138304416E0,-2.115093470E-1,1.912713051E-1,6.898307800E-1
2.146177951E0,-2.344781756E-1,2.293372154E-1,5.692720413E-1
2.154173556E0,-1.282486320E-1,2.584433556E-1,2.981300354E-1
2.162108126E0,-1.000652909E-1,1.956329346E-1,1.378355026E-1
2.169981662E0,-7.392734289E-2,2.067008018E-1,-2.935886383E-2
2.177855197E0,-3.634715080E-2,1.772603989E-1,-1.679582596E-1
2.185789767E0,-4.213345051E-2,1.891679764E-1,-2.566866875E-1
2.193785373E0,-1.046904325E-1,1.595907211E-1,-3.008766174E-1
2.201719943E0,-1.163259745E-1,1.792016029E-1,-2.452740669E-1
2.209593478E0,-1.243357658E-1,1.563634872E-1,-8.573055267E-2
2.217528048E0,-1.619857550E-2,1.844420433E-1,2.350177765E-1
2.225462619E0,4.930907488E-2,2.533559799E-1,3.622226715E-1
2.233458224E0,3.157866001E-2,2.075791359E-1,4.125156403E-1
2.241392794E0,8.114421368E-2,2.804536819E-1,4.609375000E-1
2.249327365E0,5.851447582E-2,1.656675339E-1,5.243053436E-1
2.257231418E0,7.763212919E-2,1.205377579E-1,5.612945557E-1
2.265135470E0,3.250688314E-2,8.441972733E-2,5.707874298E-1
2.273100558E0,6.330054998E-2,6.954479218E-2,5.620908737E-1
2.281004611E0,9.334045649E-2,1.676306725E-1,3.966169357E-1
2.288878146E0,5.410319567E-2,1.152453423E-1,1.726608276E-1
2.296782199E0,5.345851183E-2,1.940417290E-1,8.474922180E-2
2.304686251E0,-9.108603001E-3,1.583557129E-1,-8.697891235E-2
2.312651339E0,-8.480727673E-3,1.534924507E-1,-1.985044479E-1
2.320524875E0,4.559820294E-1,-1.045465469E-1,-2.888827324E-1
2.328459445E0,4.987967014E-1,-1.705074310E-2,-5.617041588E-1
2.336394015E0,3.325190246E-1,-1.554489136E-2,-1.587495804E-1
2.344328585E0,2.655438185E-1,-4.210948944E-2,7.705116272E-2
2.352293673E0,1.012511849E-1,6.804943085E-2,3.343219757E-1
2.360228244E0,-1.610970497E-1,1.319532394E-1,3.601217270E-1
2.368101779E0,-8.596038818E-2,1.982221603E-1,2.894592285E-1
2.376036349E0,2.631866932E-2,2.169761658E-1,1.602954865E-1
2.383940402E0,1.205709577E-1,1.667728424E-1,-1.686935425E-1
2.391936007E0,2.321960628E-1,1.656804085E-1,-4.418807030E-1
2.399870578E0,3.385005891E-1,2.124457359E-1,-6.433982849E-1
2.407805148E0,3.281625211E-1,2.824430466E-1,-7.552027702E-1
2.415739718E0,2.792003453E-1,3.390898705E-1,-7.767095566E-1
2.423643771E0,1.849170327E-1,3.559484482E-1,-7.197875977E-1
2.431608859E0,2.529945076E-1,2.851362228E-1,-7.113895416E-1
2.439482394E0,5.824031830E-1,3.083753586E-2,-8.114733696E-1
2.447355929E0,7.157711387E-1,-6.656217575E-2,1.149711609E-1
2.455259982E0,8.837280273E-1,-8.792495728E-2,9.164719582E-1
2.463133517E0,9.960917234E-1,-5.158376694E-2,5.043101311E-1
2.471098605E0,8.452582955E-1,-2.410640717E-1,3.993835449E-1
2.479063693E0,7.809077501E-1,-3.125119209E-1,3.267216682E-1
2.486937228E0,6.505390406E-1,-4.631152153E-1,1.445784569E-1
2.494841281E0,5.174400806E-1,-4.572839737E-1,-3.785123825E-1
2.502714816E0,2.518320084E-1,-2.847766876E-1,-2.240605354E-1
2.510679904E0,4.032723606E-3,-2.063245773E-1,-1.466398239E-1
2.518583957E0,-3.553124070E-1,5.627870560E-2,9.965896606E-3
2.526518527E0,-7.660294175E-1,2.654805183E-1,7.372140884E-2
2.534422580E0,-9.971811771E-1,3.898248672E-1,-1.371188164E-1
2.542357150E0,-1.068034172E0,4.573769569E-1,-3.221654892E-1
2.550352755E0,-9.463311434E-1,4.478521347E-1,-3.575148582E-1
2.558256808E0,-8.132182360E-1,4.463124275E-1,-1.754097939E-1
2.566130343E0,-7.261441946E-1,4.581460953E-1,-1.559877396E-2
2.574034396E0,-4.560742378E-1,4.369931221E-1,9.471035004E-2
2.581907931E0,-3.374671340E-1,3.808536530E-1,2.107572556E-1
2.589873019E0,-4.455709457E-2,3.547410965E-1,2.080626488E-1
2.597807589E0,1.333378553E-1,2.814283371E-1,6.076431274E-2
2.605711642E0,3.352859020E-1,1.634697914E-1,-1.098680496E-2
2.613585177E0,2.628904581E-1,1.133003235E-1,-1.267833710E-1
2.621519748E0,8.732059598E-2,6.293344498E-2,-1.450366974E-1
2.629515353E0,-2.695739269E-1,1.570873260E-1,-9.170866013E-2
2.637419406E0,-6.343711615E-1,1.907396317E-1,1.646232605E-1
2.645323459E0,-5.245527625E-1,1.914329529E-1,2.539896965E-1
2.653227511E0,-3.573760986E-1,6.096553802E-2,3.151259422E-1
2.661131564E0,-2.502344251E-1,-4.820823669E-3,3.100261688E-1
2.669096652E0,-2.220752835E-1,-4.739952087E-2,2.538056374E-1
2.677000705E0,-2.174316645E-1,-3.592777252E-2,2.807807922E-1
2.684874240E0,-2.509223819E-1,-3.292846680E-2,3.410582542E-1
2.692778293E0,-7.752561569E-2,-1.069068909E-2,2.906684875E-1
2.700682345E0,1.450684071E-1,-1.218190193E-1,1.187934875E-1
2.708616916E0,3.469776213E-1,-2.305979729E-1,-8.525657654E-2
2.716520968E0,4.492088556E-1,-2.893695831E-1,-1.251940727E-1
2.724425021E0,4.422296882E-1,-2.571253777E-1,2.186012268E-2
2.732329074E0,4.262272716E-1,-2.444038391E-1,9.741353989E-2
2.740233126E0,3.931454420E-1,-2.209801674E-1,1.349210739E-2
2.748228732E0,3.707098067E-1,-1.979837418E-1,-3.668403625E-2
2.756102267E0,3.405334353E-1,-1.775269508E-1,-8.917808533E-2
2.763975802E0,3.024586737E-1,-1.614131927E-1,-1.252899170E-1
2.771879855E0,2.648854256E-1,-1.782393456E-1,-1.546077728E-1
2.779783908E0,2.761231959E-1,-1.542892456E-1,-2.078475952E-1
2.787718478E0,1.772346497E-1,-1.137180328E-1,-2.847518921E-1
2.795622531E0,2.853709459E-2,-7.558202744E-2,-3.087491989E-1
2.803496066E0,-7.190227509E-2,-1.826095581E-2,-3.565206528E-1
2.811400119E0,-1.158261895E-1,8.701801300E-3,-2.994213104E-1
2.819273654E0,-9.506344795E-2,3.146839142E-2,-2.283992767E-1
2.827238742E0,3.522717953E-2,7.416248322E-3,-6.963348389E-2
2.835173312E0,2.400598526E-1,-6.824684143E-2,7.143259048E-2
2.843077365E0,2.951186895E-1,-5.995893478E-2,9.737062454E-2
2.850981418E0,3.180514574E-1,-5.166292191E-2,5.380630493E-2
2.858854953E0,2.810037732E-1,-6.771135330E-2,9.608268738E-4
2.866850558E0,1.888854802E-1,-7.689476013E-2,-1.091036797E-1
2.874815646E0,1.427944005E-1,-5.307674408E-2,-2.977528572E-1
2.882719699E0,9.226286411E-2,-4.323291779E-2,-3.669567108E-1
2.890654269E0,-1.482266188E-2,-4.160833359E-2,-3.437366486E-1
2.898588839E0,-8.524787426E-2,-6.825923920E-3,-2.669100761E-1
2.906584445E0,-5.000287294E-2,1.988792419E-2,-1.049847603E-1
2.914457980E0,-4.563778639E-2,5.140781403E-3,1.730718613E-1
2.922392550E0,-1.447010040E-2,7.536888123E-2,5.053720474E-1
2.930327121E0,1.031545401E-1,8.804941177E-2,7.515835762E-1
2.938231173E0,2.057367563E-1,9.397029877E-2,8.100781441E-1
2.946226779E0,2.483166754E-1,1.144123077E-1,6.331944466E-1
2.954130832E0,2.072384953E-1,1.468095779E-1,4.149994850E-1
2.962004367E0,2.216871381E-1,1.243910789E-1,2.486872673E-1
2.969908419E0,2.187758684E-1,1.463003159E-1,6.403493881E-2
2.977781955E0,2.054731250E-1,1.293983459E-1,-9.875392914E-2
2.985747043E0,2.290343344E-1,1.391716003E-1,-1.469650269E-1
2.993681613E0,1.992521882E-1,1.423659325E-1,-1.286234856E-1
3.001555148E0,1.668641269E-1,1.395096779E-1,-7.281684875E-2
3.009459201E0,1.106537879E-1,1.401162148E-1,-4.172420502E-2
3.017363253E0,1.094017923E-1,9.579849243E-2,1.049852371E-2
3.025297824E0,1.053645909E-1,7.082176208E-2,1.228666306E-2
3.033201876E0,2.355475128E-1,6.221199036E-2,3.098487854E-2
3.041105929E0,3.017644286E-1,4.126834869E-2,-7.612228394E-3
3.049040500E0,3.498156965E-1,5.605030060E-2,-7.008886337E-2
3.056944552E0,3.774168789E-1,6.147813797E-2,-1.068735123E-2
3.064909640E0,4.251455367E-1,3.380870819E-2,1.321396828E-1
3.072813693E0,4.721083343E-1,3.996324539E-2,2.914843559E-1
3.080687228E0,4.020774364E-1,1.279401779E-2,3.812961578E-1
3.088591281E0,2.238628119E-1,4.270935059E-2,3.829216957E-1
3.096495334E0,1.609524190E-1,5.768203735E-2,3.540000916E-1
3.104429904E0,2.356767803E-1,-4.381656647E-3,2.919344902E-1
3.112364474E0,2.067885399E-1,-6.870746613E-3,1.607356071E-1
3.120268527E0,1.498506665E-1,3.596925735E-2,2.093720436E-1
3.128172580E0,2.252241820E-1,1.906394958E-2,2.483873367E-1
3.136137668E0,2.897723615E-1,1.480579376E-3,1.537547112E-1
3.144102755E0,3.548502326E-1,-3.801774979E-2,6.648063660E-2
3.152006808E0,2.396066040E-1,6.713867188E-3,7.702255249E-2
3.159880343E0,1.357106268E-1,5.240058899E-2,1.778302193E-1
3.167784396E0,1.597318947E-1,1.105628014E-1,3.644061089E-1
3.175688449E0,7.713019848E-2,1.377635002E-1,5.963039398E-1
3.183623019E0,1.491294354E-1,1.404104233E-1,7.759366035E-1
3.191527072E0,3.171232939E-1,9.112882614E-2,5.568432808E-1
3.199461642E0,2.338382006E-1,1.259818077E-1,1.118006706E-1
3.207426730E0,2.408194393E-1,1.194691658E-1,-2.033920288E-1
3.215330783E0,1.116893440E-1,8.193778992E-2,-5.640316010E-1
3.223265353E0,-2.326056361E-2,1.215596199E-1,-6.232366562E-1
3.231169406E0,2.139788866E-2,1.359448433E-1,-5.299091339E-1
3.239042941E0,4.062929749E-2,6.620597839E-2,-4.291300774E-1
3.246946994E0,9.927767515E-2,8.537101746E-2,1.144123077E-2
3.254851046E0,5.218270421E-2,1.021857262E-1,1.598734856E-1
3.262816134E0,-1.056344807E-1,1.132574081E-1,1.509523392E-1
3.270720187E0,-9.174984694E-2,1.341295242E-1,3.739871979E-1
3.278593722E0,-5.815431476E-2,1.282486916E-1,3.266186714E-1
3.286497775E0,2.544850111E-3,1.770534515E-1,-1.132655144E-1
3.294371310E0,6.916217804E-1,1.874876022E-2,-4.655327797E-1
3.302336398E0,3.275009394E-1,-1.378588676E-1,-2.388405800E-1
3.310240451E0,-4.134926200E-2,1.544728279E-1,2.272391319E-1
3.318236056E0,6.898453832E-2,8.014202118E-2,4.494643211E-1
3.326109591E0,1.957706511E-1,1.541709900E-2,4.723491669E-1
3.334044162E0,2.688614726E-1,-1.568937302E-2,4.873456955E-1
3.342039767E0,2.302614301E-1,1.240062714E-2,3.050327301E-2
3.349943820E0,4.377189279E-2,2.002429962E-2,-2.482113838E-1
3.357817355E0,-1.638031304E-1,-9.159994125E-2,-4.195041656E-1
3.365721408E0,4.743188620E-2,-3.427028656E-3,-6.084070206E-1
3.373594943E0,2.058276534E-1,-1.192064285E-1,3.925848007E-2
3.381590548E0,2.747626305E-1,-4.490756989E-2,1.259121895E-1
3.389494601E0,9.414884448E-2,4.947185516E-3,7.165622711E-2
3.397459689E0,1.241728663E-2,5.356645584E-2,2.655944824E-1
3.405272189E0,1.029973924E-1,-1.564025879E-3,4.224843979E-1
3.413176242E0,1.743897498E-1,3.679513931E-2,4.595875740E-1
3.421171847E0,6.400094926E-2,2.701616287E-2,4.585766792E-1
3.429075900E0,7.666870952E-3,6.469345093E-2,4.986157417E-1
3.437010470E0,1.486478746E-2,4.223966599E-2,5.436768532E-1
3.444945041E0,3.494454920E-2,6.860733032E-3,5.056467056E-1
3.452879611E0,5.468077958E-2,2.957487106E-2,3.347835541E-1
3.460844699E0,3.099538386E-2,2.018260956E-2,1.143321991E-1
3.468779269E0,9.760221094E-2,-4.410171509E-2,3.739166260E-2
3.476683322E0,1.630961746E-1,-7.656717300E-2,3.654813766E-2
3.484556857E0,1.485899389E-1,-1.418008804E-1,6.387996674E-2
3.492460910E0,1.510107368E-1,-1.343145370E-1,1.288943291E-1
3.500425998E0,1.468460113E-1,-1.074223518E-1,1.913518906E-1
3.508360568E0,6.491797417E-2,-1.019473076E-1,2.369890213E-1
3.516234103E0,2.535024285E-2,-6.367206573E-2,1.921949387E-1
3.524168673E0,-2.053421736E-2,-4.078912735E-2,8.350372314E-2
3.532072726E0,2.996996045E-2,-6.854534149E-3,2.335929871E-2
3.540037814E0,3.803129494E-2,-2.342748642E-2,-2.463817596E-2
3.547941867E0,-3.736665845E-2,-3.307962418E-2,-4.131746292E-2
3.555906955E0,-1.269808561E-1,-3.072738647E-2,-5.083322525E-2
3.563841525E0,-1.017690301E-1,-1.777172089E-3,-2.462387085E-2
3.571715060E0,-1.129268706E-1,-1.050901413E-2,8.014202118E-2
3.579680148E0,-1.121343672E-1,-4.042148590E-3,2.250213623E-1
3.587614718E0,-6.361734867E-2,-3.353643417E-2,2.909212112E-1
3.595549289E0,-4.144467413E-2,-4.414606094E-2,3.115224838E-1
3.603422824E0,4.618033767E-3,-5.321836472E-2,3.063907623E-1
3.611357394E0,1.986463368E-2,-8.171939850E-2,3.182210922E-1
3.619322482E0,-5.792051554E-3,-9.187650681E-2,2.061185837E-1
3.627257052E0,-3.680332005E-2,-9.578704834E-2,4.678058624E-2
3.635161105E0,-2.029088140E-2,-1.450047493E-1,-6.241750717E-2
3.643034640E0,-5.137869716E-2,-1.741747856E-1,-1.099905968E-1
3.650938693E0,-1.275513619E-1,-2.013630867E-1,-2.727127075E-2
3.658934298E0,-1.318476498E-1,-1.533756256E-1,6.913948059E-2
3.666838351E0,-1.195552200E-1,-1.524047852E-1,1.122627258E-1
3.674742404E0,-1.119468361E-1,-1.368541718E-1,1.312990189E-1
3.682646457E0,-1.207965463E-1,-9.064292908E-2,1.219406128E-1
3.690581027E0,-1.938708723E-1,-8.819866180E-2,6.278610229E-2
3.698546115E0,-1.305713505E-1,-5.072498322E-2,2.580070496E-2
3.706419650E0,-6.833395362E-2,-2.359247208E-2,-2.264356613E-2
3.714323703E0,6.997048855E-3,1.040935516E-2,-1.104259491E-2
3.722288791E0,6.650565565E-2,3.982353210E-2,3.150844574E-2
3.730223361E0,6.064099073E-2,3.853893280E-2,8.811092377E-2
3.738188449E0,9.316215664E-2,5.927658081E-2,1.371994019E-1
3.746153537E0,7.638970762E-2,8.014726639E-2,2.580451965E-1
3.754027072E0,1.139187962E-1,4.567050934E-2,3.432121277E-1
3.761992160E0,5.695730448E-2,5.101537704E-2,3.428335190E-1
3.769896212E0,1.079097390E-3,9.107971191E-2,2.044506073E-1
3.777861300E0,8.565828204E-3,1.104564667E-1,3.125858307E-2
3.785795871E0,8.988633752E-3,7.677650452E-2,-1.656017303E-1
3.793669406E0,5.006574094E-2,7.212591171E-2,-2.788743973E-1
3.801603976E0,6.170658767E-2,5.440092087E-2,-2.302637100E-1
3.809538546E0,4.863187671E-2,4.008388519E-2,-1.368937492E-1
3.817534152E0,8.231878281E-3,3.849220276E-2,-4.886436462E-2
3.825438205E0,-4.797667265E-2,3.463125229E-2,-8.841514587E-3
3.833372775E0,-2.051427960E-3,3.079271317E-2,6.466388702E-2
3.841246310E0,2.825693786E-2,1.960515976E-2,8.319377899E-2
3.849150363E0,4.158230126E-2,4.898023605E-2,1.353349686E-1
3.857145968E0,9.966775775E-3,7.351732254E-2,2.090740204E-1
3.865050021E0,-8.911341429E-4,7.157611847E-2,2.422466278E-1
3.872923556E0,-1.768867671E-2,9.563159943E-2,2.014636993E-1
3.880827609E0,-3.575742245E-2,1.096510887E-1,1.753950119E-1
3.888792697E0,-3.325913846E-2,1.234474182E-1,1.016292572E-1
3.896757785E0,3.213101625E-2,9.391641617E-2,9.029197693E-2
3.904661837E0,4.287078977E-2,7.616758347E-2,3.121376038E-2
3.912535373E0,8.081689477E-3,9.173870087E-2,-1.575279236E-2
3.920439425E0,-1.012833416E-2,7.134437561E-2,-4.592561722E-2
3.928343478E0,-1.005982757E-1,8.692312241E-2,-1.192455292E-1
3.936308566E0,-1.416022182E-1,1.100368500E-1,-1.066403389E-1
3.944212619E0,-1.212561280E-1,1.310429573E-1,-6.792306900E-2
3.952086154E0,-8.746980131E-2,1.139712334E-1,-1.981210709E-2
3.959990207E0,-2.807208896E-2,9.203481674E-2,1.875782013E-2
3.967894259E0,1.699446142E-2,1.105780602E-1,3.114700317E-2
3.975859347E0,3.202825785E-3,1.265792847E-1,5.803108215E-2
3.983763400E0,-4.283510149E-2,1.115789413E-1,8.725547791E-2
3.991636935E0,-8.288985491E-2,1.037311554E-1,1.021661758E-1
3.999540988E0,-7.220423222E-2,1.125288010E-1,1.243524551E-1
4.007445041E0,-8.290092647E-2,1.045880318E-1,1.656837463E-1
4.015410128E0,-8.185365796E-2,1.490778923E-1,1.497201920E-1
4.023314181E0,-7.459704578E-2,1.688413620E-1,9.597778320E-2
4.031187716E0,-7.276807725E-2,1.184492111E-1,-2.191400528E-2
4.039091769E0,-2.417692542E-2,1.463608742E-1,-1.393370628E-1
4.046995822E0,-5.304925144E-2,1.405243874E-1,-1.393032074E-1
4.054960910E0,-6.094223261E-2,1.326460838E-1,-1.203789711E-1
4.062864962E0,-6.741891801E-2,1.182155609E-1,-9.234905243E-2
4.070738498E0,-7.677115500E-2,1.259684563E-1,-1.689672470E-2
4.078642550E0,-3.160688281E-2,1.081781387E-1,7.952976227E-2
4.086546603E0,-8.020326495E-3,6.700897217E-2,8.697032928E-2
4.094511691E0,2.521367371E-2,8.343267441E-2,1.733293533E-1
4.102415744E0,8.263415098E-2,1.023879051E-1,2.859363556E-1
4.110289279E0,1.359051168E-1,9.217929840E-2,3.390092850E-1
4.118193332E0,1.608219892E-1,8.352375031E-2,3.304405212E-1
4.126097384E0,1.381688565E-1,8.120679855E-2,2.913537025E-1
4.134062472E0,1.683659106E-1,8.000946045E-2,1.598038673E-1
4.141966525E0,1.578735113E-1,7.320022583E-2,-2.143621445E-2
4.149840060E0,1.524204016E-1,6.588840485E-2,-2.023086548E-1
4.157744113E0,1.686514467E-1,5.854225159E-2,-3.855438232E-1
4.165648166E0,1.751596630E-1,3.939628601E-2,-4.755239487E-1
4.173613253E0,1.284498870E-1,6.147432327E-2,-5.036392212E-1
4.181486789E0,1.046674401E-1,6.084346771E-2,-4.368891716E-1
4.189360324E0,1.060525402E-1,4.663848877E-2,-3.898835182E-1
4.197264376E0,6.504914165E-2,4.537963867E-2,-3.627653122E-1
4.205168429E0,1.141142100E-1,4.265928268E-2,-2.405643463E-1
4.213133517E0,1.503054351E-1,4.096364975E-2,-1.262946129E-1
4.221037570E0,1.865891814E-1,8.093166351E-2,4.475545883E-2
4.228911105E0,1.996083558E-1,1.045746803E-1,1.724200249E-1
4.236815158E0,2.752205133E-1,1.350145340E-1,2.046041489E-1
4.244719210E0,3.281613588E-1,1.501293182E-1,1.537060738E-1
4.252714816E0,3.386640549E-1,1.616053581E-1,3.667211533E-2
4.260618869E0,3.258719146E-1,1.857862473E-1,-1.773233414E-1
4.268492404E0,2.158328146E-1,2.196965218E-1,-4.471592903E-1
4.276396457E0,1.705918014E-1,1.923093796E-1,-6.800403595E-1
4.284300509E0,1.013939828E-1,2.073683739E-1,-7.616147995E-1
4.292265597E0,1.263929307E-1,2.399239540E-1,-7.096610069E-1
4.300169650E0,1.454725116E-1,2.502923012E-1,-5.201163292E-1
4.308073703E0,1.817407906E-1,2.349720001E-1,-2.753267288E-1
4.315947238E0,2.024640292E-1,1.976308823E-1,-2.714109421E-2
4.323851291E0,2.011585385E-1,2.074060440E-1,2.007236481E-1
4.331816378E0,2.143394649E-1,2.018542290E-1,4.155988693E-1
4.339750949E0,2.739952803E-1,1.617212296E-1,5.409555435E-1
4.347624484E0,3.180111051E-1,1.499567032E-1,4.606947899E-1
4.355528537E0,3.935448825E-1,1.431288719E-1,3.006496429E-1
4.363432589E0,4.260560274E-1,1.752958298E-1,1.514105797E-1
4.371367160E0,3.961714208E-1,2.346491814E-1,-2.305555344E-2
4.379301730E0,4.109694362E-1,2.277178764E-1,-1.939554214E-1
4.387205783E0,4.096119106E-1,2.311606407E-1,-3.206181526E-1
4.395079318E0,3.422627747E-1,2.315587997E-1,-2.887916565E-1
4.402983371E0,3.002127409E-1,2.321143150E-1,-2.594609261E-1
4.410948459E0,2.666121125E-1,2.108254433E-1,-3.089084625E-1
4.418883029E0,2.627148926E-1,1.921620369E-1,-2.004837990E-1
4.426787082E0,2.564926744E-1,1.769208908E-1,-4.010248184E-2
4.434691134E0,2.339373082E-1,1.917033195E-1,9.542703629E-2
4.442595187E0,2.786208689E-1,1.933526993E-1,1.798114777E-1
4.450590793E0,2.926609814E-1,1.884431839E-1,2.374272346E-1
4.458494845E0,2.677368224E-1,1.765351295E-1,2.470312119E-1
4.466368380E0,1.972599924E-1,1.901350021E-1,1.877946854E-1
4.474272433E0,1.714532077E-1,1.598510742E-1,5.968904495E-2
4.482176486E0,1.348930299E-1,9.999656677E-2,-1.659774780E-1
4.490141574E0,9.886930138E-2,9.235906601E-2,-2.548480034E-1
4.498045626E0,4.635856301E-2,9.733533859E-2,-2.220768929E-1
4.505919162E0,-3.292613477E-2,1.417965889E-1,-1.183228493E-1
4.513823214E0,-2.258215100E-2,1.785979271E-1,8.940982819E-2
4.521727267E0,-3.940808028E-2,1.760883331E-1,2.171444893E-1
4.529692355E0,-3.788998723E-2,2.037887573E-1,4.204454422E-1
4.537596408E0,-7.448345423E-2,1.815462112E-1,4.511284828E-1
4.545500460E0,-4.825814813E-2,1.494731903E-1,4.987559319E-1
4.553404513E0,-3.034664690E-2,1.117687225E-1,5.038824081E-1
4.561308566E0,-8.531014621E-2,3.483486176E-2,4.761343002E-1
4.569273654E0,-1.177329123E-1,-2.363777161E-2,4.416875839E-1
4.577177707E0,-2.091417611E-1,-5.883932114E-2,4.579892159E-1
4.585051242E0,-2.095884979E-1,-8.447122574E-2,4.359879494E-1
4.592955294E0,-2.771116495E-1,-7.404565811E-2,4.474039078E-1
4.600828830E0,-2.851384878E-1,-8.709478378E-2,4.273672104E-1
4.608793918E0,-3.187278509E-1,-7.343244553E-2,3.639521599E-1
4.616697970E0,-3.223803937E-1,-8.559751511E-2,2.786002159E-1
4.624571505E0,-3.266299963E-1,-1.163392067E-1,2.335004807E-1
4.632475558E0,-3.498499095E-1,-1.531600952E-1,2.330484390E-1
4.640379611E0,-3.919142485E-1,-2.316727638E-1,3.225240707E-1
4.648344699E0,-4.358615279E-1,-3.583812714E-1,4.008913040E-1
4.656218234E0,-4.718614221E-1,-3.789310455E-1,3.996772766E-1
4.664091769E0,-4.336520731E-1,-4.009513855E-1,4.002237320E-1
4.671995822E0,-3.410353065E-1,-4.218459129E-1,4.646525383E-1
4.679899875E0,-2.612927854E-1,-4.251203537E-1,5.141496658E-1
4.687864962E0,-2.255058885E-1,-4.046039581E-1,5.063333511E-1
4.695769015E0,-2.496519685E-1,-3.992328644E-1,3.817806244E-1
4.703642550E0,-2.952389419E-1,-3.447642326E-1,2.796258926E-1
4.711546603E0,-3.238883913E-1,-3.224453926E-1,1.901817322E-1
4.719450656E0,-3.214138448E-1,-3.075695038E-1,1.488199234E-1
4.727385226E0,-3.646864891E-1,-3.115115166E-1,1.168222427E-1
4.735289279E0,-3.602672219E-1,-3.484115601E-1,7.966327667E-2
4.743162814E0,-4.153846800E-1,-3.750963211E-1,4.686927795E-2
4.751066867E0,-4.147271216E-1,-4.057550430E-1,8.296108246E-2
4.758970919E0,-4.088289738E-1,-4.069514275E-1,1.568794250E-1
4.766936007E0,-3.570181727E-1,-3.668742180E-1,2.519807816E-1
4.774840060E0,-3.429544866E-1,-3.006253242E-1,2.801885605E-1
4.782774630E0,-3.359130919E-1,-2.539520264E-1,2.728052139E-1
4.790709201E0,-3.193278015E-1,-2.227005959E-1,1.751937866E-1
4.798643771E0,-2.957011759E-1,-1.834979057E-1,6.914138794E-2
4.806608859E0,-3.152892590E-1,-1.576681137E-1,-3.114891052E-2
4.814543429E0,-3.024039567E-1,-1.141891479E-1,-1.064624786E-1
4.822478000E0,-3.693897426E-1,-1.275677681E-1,-2.475914955E-1
4.830382052E0,-3.700954318E-1,-1.206393242E-1,-3.088655472E-1
4.838286105E0,-3.382811844E-1,-1.119647026E-1,-3.457598686E-1
4.846251193E0,-2.807339132E-1,-1.455903053E-1,-2.443275452E-1
4.854155246E0,-2.520829439E-1,-1.210417747E-1,-1.625294685E-1
4.862028781E0,-2.034033239E-1,-1.142330170E-1,-2.666473389E-3
4.869932834E0,-2.394000739E-1,-7.701444626E-2,2.518510818E-1
4.877836886E0,-2.737976611E-1,-1.465034485E-2,4.481267929E-1
4.885801974E0,-2.612304688E-1,1.175975800E-2,4.840526581E-1
4.893797580E0,-2.081945240E-1,1.325941086E-2,4.464273453E-1
4.901732150E0,-2.009479702E-1,1.823043823E-2,4.049100876E-1
4.909666720E0,-2.202716172E-1,6.011915207E-2,4.361600876E-1
4.917570773E0,-2.598112822E-1,7.256841660E-2,4.080266953E-1
4.925535861E0,-1.927044988E-1,1.008810997E-1,3.924551010E-1
4.933470431E0,-1.518210322E-1,1.092219353E-1,3.726100922E-1
4.941374484E0,-1.531428993E-1,9.573507309E-2,3.361701965E-1
4.949248019E0,-6.740911305E-2,1.154890060E-1,3.381958008E-1
4.957152072E0,-3.314000368E-2,8.698844910E-2,2.925672531E-1
4.965147677E0,1.011973619E-2,1.251130104E-1,2.663545609E-1
4.973051730E0,3.132200986E-2,1.489295959E-1,3.119230270E-1
4.980925265E0,5.037955940E-2,1.417546272E-1,3.645877838E-1
4.988829318E0,1.246901900E-1,1.319923401E-1,3.742914200E-1
4.996763888E0,1.351562589E-1,1.238441467E-1,3.581914902E-1
5.004759494E0,7.679633051E-2,1.197204590E-1,3.043079376E-1
5.012633029E0,3.802423179E-2,1.289935112E-1,2.223501205E-1
5.020567599E0,-1.493775845E-2,8.429145813E-2,1.269025803E-1
5.028502169E0,8.267223835E-3,7.694387436E-2,2.251434326E-2
5.036406222E0,-5.294252932E-2,7.146549225E-2,-8.152866364E-2
5.044401828E0,-7.696050406E-2,6.593322754E-2,-1.209087372E-1
5.052305880E0,-3.979365528E-2,3.221225739E-2,-1.415138245E-1
5.060148898E0,-1.315702498E-2,2.353000641E-2,-1.030158997E-1
5.068083468E0,2.739655972E-2,3.712177277E-3,-3.396129608E-2
5.075987521E0,4.404064268E-2,2.304744720E-2,3.452396393E-2
5.083952609E0,1.345877349E-2,2.386760712E-2,6.907272339E-2
5.091856662E0,2.662389725E-2,5.824565887E-3,8.667755127E-2
5.099791232E0,2.363070846E-3,-1.451063156E-2,6.113433838E-2
5.107695285E0,8.242651820E-3,-3.947114944E-2,9.168624878E-3
5.115634035E0,-1.355320215E-2,-3.549242020E-2,2.571105957E-3
5.123568605E0,-3.674557805E-2,-1.461029053E-2,-1.709938049E-3
5.131503176E0,2.569854259E-4,-3.289699554E-3,-5.148410797E-2
5.139376711E0,5.815273523E-2,4.375171661E-2,-7.240962982E-2
5.147311281E0,1.317244470E-1,1.004357338E-1,-4.813194275E-3
5.155215334E0,1.615865082E-1,1.188397408E-1,2.444648743E-2
5.163180422E0,1.311541945E-1,1.273012161E-1,-2.266883850E-2
5.171084475E0,9.366500378E-2,1.304435730E-1,-1.005468369E-1
5.178958010E0,6.360867620E-2,9.770679474E-2,-1.257705688E-1
5.186831545E0,4.370581359E-2,3.911972046E-2,-1.321578026E-1
5.194735598E0,4.576837271E-2,4.624414444E-2,-6.264591217E-2
5.202700686E0,5.285654217E-2,2.310895920E-2,3.022861481E-2
5.210635256E0,3.919899464E-4,7.704257965E-3,1.083726883E-1
5.218508791E0,2.223844826E-2,2.832031250E-2,1.002559662E-1
5.226443361E0,9.642903507E-2,5.851125717E-2,1.567783356E-1
5.234347414E0,1.152950674E-1,8.612346649E-2,1.511716843E-1
5.242312502E0,1.411876827E-1,1.014990807E-1,1.768655777E-1
5.250247072E0,1.429172307E-1,1.091732979E-1,1.526288986E-1
5.258151125E0,1.471806467E-1,1.280465126E-1,1.313123703E-1
5.266055178E0,1.131571010E-1,1.368474960E-1,6.963157654E-2
5.273959230E0,1.317717433E-1,1.213245392E-1,-6.157875061E-3
5.281954836E0,1.476214528E-1,1.341838837E-1,-1.032667160E-1
5.289828371E0,1.247715205E-1,1.372256279E-1,-1.643095016E-1
5.297732424E0,1.867863685E-1,1.637015343E-1,-2.178530693E-1
5.305636477E0,1.826794595E-1,1.376247406E-1,-2.523584366E-1
5.313571047E0,2.060460746E-1,1.881361008E-1,-2.318058014E-1
5.321566652E0,2.016967237E-1,1.789412498E-1,-2.233538628E-1
5.329531740E0,2.299714088E-1,1.582865715E-1,-1.625928879E-1
5.337405275E0,2.456775457E-1,1.378431320E-1,-1.618394852E-1
5.345339846E0,3.204103410E-1,1.079854965E-1,-1.300835609E-1
5.353243898E0,3.228000402E-1,8.091115952E-2,-5.071163177E-2
5.361239504E0,3.464987278E-1,8.278989792E-2,2.851104736E-2
5.369143557E0,3.587451279E-1,6.853199005E-2,1.935176849E-1
5.377047609E0,3.426406384E-1,6.190824509E-2,2.887973785E-1
5.384951662E0,3.269416988E-1,6.018114090E-2,3.074007034E-1
5.392855715E0,3.135586679E-1,6.728887558E-2,2.259550095E-1
5.400820803E0,2.640640140E-1,6.919145584E-2,1.208505630E-1
5.408724855E0,2.505090833E-1,8.995580673E-2,1.116371155E-2
5.416659426E0,2.181034684E-1,1.491255760E-1,9.158134460E-3
5.424563479E0,1.480632424E-1,1.535587311E-1,-7.425308228E-3
5.432467531E0,9.311680496E-2,1.602344513E-1,-4.544067383E-2
5.440432619E0,2.463719994E-2,1.838264465E-1,-1.651382446E-2
5.448397707E0,-2.192534506E-2,1.765513420E-1,1.463699341E-2
5.456271242E0,-4.630307853E-2,1.840643883E-1,7.663249969E-2
5.464205813E0,-6.053133309E-2,1.631793976E-1,1.671390533E-1
5.472140383E0,5.625747144E-3,1.800322533E-1,2.508430481E-1
5.480135988E0,3.549565747E-2,1.848015785E-1,3.034954071E-1
5.488040041E0,3.027335554E-2,1.873693466E-1,3.033523560E-1
5.495944094E0,2.525200322E-2,2.131314278E-1,2.917490005E-1
5.503909182E0,3.002771363E-2,2.090220451E-1,1.660032272E-1
5.511813234E0,2.277934924E-2,2.281427383E-1,6.947422028E-2
5.519778322E0,-1.082264259E-2,2.228469849E-1,3.073024750E-2
5.527712893E0,-2.778747678E-2,2.321805954E-1,4.448032379E-2
5.535586428E0,-1.727387309E-3,2.249021530E-1,7.249641418E-2
5.543490480E0,4.626231641E-2,2.249851227E-1,9.081840515E-2
5.551394533E0,4.953989387E-2,1.987075806E-1,1.139507294E-1
5.559359621E0,7.016006857E-2,1.791105270E-1,5.124092102E-2
5.567233156E0,1.222697049E-1,1.490306854E-1,-6.351947784E-2
5.575167727E0,1.528776586E-1,1.423993111E-1,-1.444182396E-1
5.583071779E0,1.637747735E-1,1.356544495E-1,-2.012987137E-1
5.590975832E0,1.803985238E-1,1.242051125E-1,-2.247214317E-1
5.598940920E0,1.597945988E-1,1.129508018E-1,-2.339162827E-1
5.606844973E0,1.814032197E-1,1.096162796E-1,-1.310882568E-1
5.614718508E0,1.956184059E-1,1.102452278E-1,4.727649689E-2
5.622622561E0,2.051759213E-1,9.753227234E-2,2.249412537E-1
5.630526613E0,2.343516052E-1,9.693050385E-2,2.636518478E-1
5.638461184E0,2.716051936E-1,7.444810867E-2,2.714681625E-1
5.646395754E0,2.261423916E-1,4.685974121E-2,2.388057709E-1
5.654269289E0,1.844730675E-1,1.645517349E-2,1.920738220E-1
5.662234377E0,1.643995643E-1,9.683132172E-3,1.264028549E-1
5.670229982E0,1.654064059E-1,-6.962299347E-3,2.741622925E-2
5.678225588E0,1.604606509E-1,-4.471778870E-3,-8.352851868E-2
5.686099123E0,1.809131056E-1,-1.719951630E-3,-8.691596985E-2
5.694033693E0,1.479224414E-1,2.051162720E-2,-1.312251091E-1
5.701937746E0,1.194363981E-1,6.214570999E-2,-1.685223579E-1
5.709841799E0,1.197151244E-1,9.673023224E-2,-1.867537498E-1
5.717806887E0,1.466583014E-1,8.332204819E-2,-1.929388046E-1
5.725710939E0,1.572525352E-1,1.051230431E-1,-2.417292595E-1
5.733584475E0,1.325531900E-1,1.095390320E-1,-2.948732376E-1
5.741549563E0,1.134293303E-1,1.233587265E-1,-3.478970528E-1
5.749484133E0,4.906763136E-2,1.111068726E-1,-3.580074310E-1
5.757449221E0,2.763078921E-2,1.304340363E-1,-2.894220352E-1
5.765383791E0,2.698918246E-2,1.508507729E-1,-1.713109016E-1
5.773257326E0,5.225341022E-2,1.173553467E-1,-1.569175720E-2
5.781191896E0,8.206684887E-2,1.278514862E-1,1.417026520E-1
5.789095949E0,1.026330143E-1,1.170921326E-1,2.055215836E-1
5.797030520E0,1.381581277E-1,1.179132462E-1,2.432727814E-1
5.804965090E0,9.573729336E-2,1.469230652E-1,2.670297623E-1
5.812930178E0,5.465619639E-2,1.894164085E-1,2.291421890E-1
5.820864748E0,5.934968218E-2,1.808967590E-1,1.295137405E-1
5.828768801E0,8.472160250E-2,2.005906105E-1,3.912925720E-3
5.836733889E0,9.459304810E-2,1.698961258E-1,-1.287851334E-1
5.844668459E0,8.644715697E-2,1.849236488E-1,-1.658687592E-1
5.852541994E0,1.008589268E-1,1.600317955E-1,-1.412363052E-1
5.860507082E0,7.399621606E-2,1.190686226E-1,-4.045963287E-2
5.868411135E0,7.060670108E-2,1.171536446E-1,9.811592102E-2
5.876498293E0,7.514587045E-2,1.153717041E-1,1.384344101E-1
5.884402346E0,9.048311412E-2,1.351227760E-1,1.787548065E-1
5.892275881E0,8.172136545E-2,1.305561066E-1,1.905870438E-1
5.900210451E0,5.551683903E-2,1.636834145E-1,9.508991241E-2
5.908114504E0,3.503434360E-2,1.576609612E-1,-6.207990646E-2
5.916110109E0,4.790429026E-2,1.846160889E-1,-1.111316681E-1
5.924014162E0,2.727523446E-3,1.854524612E-1,-1.483573914E-1
5.931887697E0,8.980870247E-3,1.986546516E-1,-1.116271019E-1
5.939791750E0,2.320043743E-2,1.819405556E-1,3.287315369E-3
5.947695803E0,1.047126949E-2,1.684207916E-1,1.344108582E-1
5.955660891E0,5.266886204E-2,2.009925842E-1,2.962436676E-1
5.963534426E0,4.985761642E-2,1.973023415E-1,3.577585220E-1
5.971407961E0,9.307640046E-2,1.903953552E-1,3.168907166E-1
5.979312014E0,9.887886792E-2,1.773099899E-1,1.740283966E-1
5.987216066E0,8.136162907E-2,1.462478638E-1,6.791973114E-2
5.995181154E0,8.288445324E-2,1.456084251E-1,-5.924415588E-2
6.003054689E0,6.232269108E-2,1.278820038E-1,-1.550478935E-1
6.010958742E0,1.011041179E-1,9.169721603E-2,-1.651372910E-1
6.018862795E0,7.763691992E-2,7.068681717E-2,-8.002138138E-2
6.026766848E0,7.130332291E-2,6.257057190E-2,6.841659546E-3
6.034731936E0,4.164603353E-2,6.197261810E-2,1.174039841E-1
6.042635988E0,1.021539420E-2,3.256082535E-2,1.370372772E-1
6.050509523E0,-4.446078092E-2,6.479215622E-2,1.163835526E-1
6.058444094E0,-7.028218359E-2,2.960395813E-2,3.374671936E-2
6.066317629E0,-6.053245068E-2,4.903030396E-2,-7.969427109E-2
6.074313234E0,-3.045209497E-2,2.981042862E-2,-1.761207581E-1
6.082217287E0,-1.801843196E-2,3.222703934E-2,-2.510519028E-1
6.090090822E0,1.767238230E-2,5.442523956E-2,-2.138819695E-1
6.097994875E0,1.695566624E-2,5.864000320E-2,-1.176714897E-1
6.105898928E0,3.489875793E-2,8.262252808E-2,-6.019067764E-2
6.113864016E0,6.008005887E-2,7.791948318E-2,-2.189254761E-2
6.121768068E0,8.573355526E-2,9.229278564E-2,1.884746552E-2
6.129641604E0,6.666763872E-2,1.066913605E-1,3.322315216E-2
6.137545656E0,5.764882267E-2,1.233358383E-1,4.530239105E-2
6.145419191E0,1.084148735E-1,1.374316216E-1,2.876091003E-2
6.153414797E0,1.661178470E-1,1.488871574E-1,3.155136108E-2
6.161318850E0,1.683181673E-1,1.651725769E-1,7.741260529E-2
6.169192385E0,1.655371636E-1,1.599502563E-1,1.088876724E-1
6.177096438E0,1.481794119E-1,1.616296768E-1,9.746646881E-2
6.185000490E0,1.546171606E-1,1.482939720E-1,2.186203003E-2
6.193026613E0,1.536960602E-1,1.560621262E-1,-1.751232147E-2
6.200930666E0,1.609472334E-1,1.576037407E-1,-9.655141830E-2
6.208865236E0,2.060058266E-1,1.539087296E-1,-1.417422295E-1
6.216769289E0,2.050012946E-1,1.643295288E-1,-1.675858498E-1
6.224673342E0,1.489211470E-1,1.578373909E-1,-1.693730354E-1
6.232638430E0,1.431920379E-1,1.703968048E-1,-1.208038330E-1
6.240603518E0,1.352343112E-1,1.399831772E-1,-1.154131889E-1
6.248507570E0,1.469947547E-1,1.429996490E-1,-9.320592880E-2
6.256381105E0,1.497305185E-1,1.220650673E-1,-6.556320190E-2
6.264285158E0,1.770045310E-1,1.392865181E-1,-8.092260361E-2
6.272250246E0,2.046947926E-1,1.821932793E-1,-1.461081505E-1
6.280154299E0,2.513805628E-1,1.769456863E-1,-1.608190536E-1
6.288088869E0,2.760650218E-1,1.597971916E-1,-1.276822090E-1
6.296023439E0,2.380429655E-1,1.596035957E-1,-1.305856705E-1
6.303927492E0,2.470642030E-1,1.474432945E-1,-1.813530922E-1
6.311892580E0,2.715483308E-1,1.349935532E-1,-2.654004097E-1
6.319827150E0,3.372378051E-1,1.421146393E-1,-2.802610397E-1
6.327700686E0,3.752242327E-1,1.710743904E-1,-2.378273010E-1
6.335635256E0,3.948502541E-1,1.832814217E-1,-2.312588692E-1
6.343539309E0,4.034961760E-1,2.331933975E-1,-2.409691811E-1
6.351504396E0,4.258593321E-1,2.707691193E-1,-2.886915207E-1
6.359408449E0,4.668622315E-1,2.963380814E-1,-2.836823463E-1
6.367343020E0,5.713794827E-1,3.025479317E-1,-2.880458832E-1
6.375277590E0,6.292866468E-1,2.894392014E-1,-3.113846779E-1
6.383181643E0,6.460992694E-1,2.600374222E-1,-2.943124771E-1
6.391177248E0,6.387418509E-1,2.476921082E-1,-2.391109467E-1
6.399081301E0,6.291806698E-1,2.096629143E-1,-2.011146545E-1
6.406954836E0,6.676113009E-1,1.458339691E-1,-1.754522324E-1
6.414858889E0,7.436730862E-1,9.650421143E-2,-2.192621231E-1
6.422762941E0,7.472862005E-1,9.762239456E-2,-1.673684120E-1
6.430728029E0,7.336210012E-1,8.927583694E-2,-1.969032288E-1
6.438601564E0,6.867588758E-1,7.088518143E-2,-2.955164909E-1
6.446505617E0,6.303964853E-1,6.798076630E-2,-4.147338867E-1
6.454409670E0,5.957906246E-1,1.000642776E-1,-5.691771507E-1
6.462313723E0,5.094666481E-1,9.576749802E-2,-6.682357788E-1
6.470278811E0,4.647488296E-1,1.439666748E-1,-7.504301071E-1
6.478213381E0,3.923894465E-1,1.684117317E-1,-7.513923645E-1
6.486086916E0,2.590759695E-1,1.979889870E-1,-7.335057259E-1
6.494021486E0,1.340261400E-1,2.523217201E-1,-6.540069580E-1
6.501925539E0,5.730122328E-3,3.048243523E-1,-5.917587280E-1
6.509890627E0,-1.040411294E-1,3.625297546E-1,-4.820289612E-1
6.517794680E0,-1.921173930E-1,3.970260620E-1,-4.112949371E-1
6.525668215E0,-2.849295139E-1,4.216995239E-1,-3.525085449E-1
6.533572268E0,-3.541006148E-1,4.129238129E-1,-2.651767731E-1
6.541476320E0,-4.449865818E-1,3.685774803E-1,-1.973919868E-1
6.549441408E0,-5.146102309E-1,3.297500610E-1,-2.731990814E-2
6.557314943E0,-5.918256044E-1,2.547702789E-1,1.769776344E-1
6.565249514E0,-6.624053717E-1,1.529541016E-1,3.797912598E-1
6.573214602E0,-7.512409687E-1,6.850624084E-2,6.139082909E-1
6.581118654E0,-8.666401505E-1,3.814220428E-3,8.291316032E-1
6.589114260E0,-9.200612307E-1,-1.854372025E-2,9.426689148E-1
6.597018313E0,-9.312148094E-1,-5.961275101E-2,9.482302666E-1
6.604922365E0,-9.452887774E-1,-5.483627319E-5,7.544078827E-1
6.612826418E0,-1.008355856E0,5.910062790E-2,4.428248405E-1
6.620760988E0,-1.016096115E0,1.433362961E-1,-1.009087563E-1
6.628726076E0,-1.062582731E0,1.914501190E-1,-6.867704391E-1
6.636630129E0,-1.147127748E0,2.434129715E-1,-1.217488289E0
6.644534182E0,-1.227971673E0,2.991089821E-1,-1.516991615E0
6.652499270E0,-1.347415566E0,3.363509178E-1,-1.694293976E0
6.660433840E0,-1.412534118E0,3.310503960E-1,-1.691630840E0
6.668398928E0,-1.396929145E0,3.545889854E-1,-1.510419369E0
6.676302980E0,-1.406547070E0,3.797564507E-1,-1.341547489E0
6.684176516E0,-1.431367159E0,5.050382614E-1,-1.074118137E0
6.692141604E0,-1.322499037E0,5.082659721E-1,-7.765254974E-1
6.700045656E0,-1.185409069E0,5.527534485E-1,-5.335674286E-1
6.708041262E0,-9.693108201E-1,6.107888222E-1,-3.442630768E-1
6.715945314E0,-7.614091635E-1,6.342682838E-1,-1.007499695E-1
6.723818850E0,-5.011674166E-1,6.625003815E-1,9.976291656E-2
6.731722902E0,-3.539070487E-1,6.326093674E-1,3.007230759E-1
6.739596438E0,-1.942337453E-1,6.185793877E-1,4.041833878E-1
6.747592043E0,-3.744663298E-2,5.798931122E-1,4.196329117E-1
6.755496096E0,4.787491262E-2,5.519471169E-1,3.785123825E-1
6.763430666E0,2.304461896E-1,3.817710876E-1,4.571733475E-1
6.771365236E0,3.426069021E-1,2.910866737E-1,4.143238068E-1
6.779269289E0,3.448003829E-1,2.227315903E-1,2.605700493E-1
6.787264895E0,3.145076632E-1,1.836776733E-1,1.517329216E-1
6.795138430E0,2.858604789E-1,1.355118752E-1,7.809829712E-2
6.803011965E0,2.001059949E-1,6.461715698E-2,-5.628681183E-2
6.810916018E0,1.323052794E-1,8.236932755E-2,-1.961722374E-1
6.818820070E0,2.371678129E-3,4.335451126E-2,-3.761687279E-1
6.826785158E0,-1.374287009E-1,-3.540897369E-2,-5.198101997E-1
6.834689211E0,-2.440320402E-1,-1.115179062E-1,-7.001314163E-1
6.842593264E0,-3.410338461E-1,-1.801333427E-1,-8.740406036E-1
6.850497316E0,-4.254198670E-1,-2.392392159E-1,-1.019648552E0
6.858401369E0,-5.521900058E-1,-2.684979439E-1,-1.101180553E0
6.866366457E0,-6.330987215E-1,-3.117289543E-1,-1.070464134E0
6.874301027E0,-6.790000796E-1,-3.201293945E-1,-9.952182770E-1
6.882174563E0,-7.284194231E-1,-3.654565811E-1,-7.988743782E-1
6.890048098E0,-7.281768322E-1,-3.835930824E-1,-6.869492531E-1
6.897982668E0,-6.826045513E-1,-3.609447479E-1,-6.588711739E-1
6.905978273E0,-5.704740286E-1,-3.766026497E-1,-5.996499062E-1
6.913851809E0,-4.113545120E-1,-3.730845451E-1,-5.954828262E-1
6.921755861E0,-3.619090915E-1,-3.599152565E-1,-5.913243294E-1
6.929659914E0,-3.279068172E-1,-3.468575478E-1,-5.942149162E-1
6.937563967E0,-3.084106445E-1,-3.291630745E-1,-4.963841438E-1
6.945529055E0,-4.030329883E-1,-3.043107986E-1,-3.553900719E-1
6.953402590E0,-5.005607009E-1,-2.729659081E-1,-2.521748543E-1
6.961337160E0,-5.673075318E-1,-1.968226433E-1,-1.340780258E-1
6.969241213E0,-5.869793892E-1,-1.310567856E-1,-6.567525864E-2
6.977145266E0,-6.021091938E-1,-9.750270844E-2,-1.804780960E-2
6.985140871E0,-6.349269748E-1,-4.316520691E-2,1.815080643E-2
6.993044924E0,-6.738321781E-1,5.012035370E-3,1.701259613E-2
7.000948977E0,-6.908566356E-1,3.240394592E-2,1.224231720E-2
7.008822512E0,-6.765196323E-1,5.822896957E-2,-5.780696869E-3
7.016757082E0,-6.904509068E-1,1.091046333E-1,-1.332092285E-2
7.024722170E0,-7.473877072E-1,1.704521179E-1,-2.219486237E-2
7.032656740E0,-7.493423223E-1,3.046727180E-1,-7.081270218E-2
7.040621828E0,-7.491844893E-1,3.963055611E-1,-2.042756081E-1
7.048525881E0,-6.801604629E-1,4.939870834E-1,-2.890353203E-1
7.056429934E0,-5.632463098E-1,6.034512520E-1,-1.318373680E-1
7.064395021E0,-5.173606873E-1,6.508073807E-1,2.103433609E-1
7.072268557E0,-4.251024127E-1,7.040519714E-1,5.549092293E-1
7.080142092E0,-3.630107641E-1,7.709002495E-1,9.733276367E-1
7.088046145E0,-3.242480159E-1,8.571882248E-1,1.500803471E0
7.095950197E0,-2.118449509E-1,9.592471123E-1,2.047348022E0
7.103945803E0,-1.185916364E-2,1.019863605E0,2.545128822E0
7.111849855E0,1.674541831E-1,1.195818901E0,2.833807945E0
7.119753908E0,2.814113796E-1,1.334772110E0,2.849771500E0
7.127718996E0,2.820381224E-1,1.438290119E0,2.665413857E0
7.135623049E0,2.597892582E-1,1.445314884E0,2.286391258E0
7.143588137E0,3.137313724E-1,1.406174660E0,1.962352753E0
7.151492189E0,3.792564571E-1,1.241277695E0,1.792599678E0
7.159426760E0,4.477604926E-1,9.601173401E-1,1.696451187E0
7.167361330E0,5.314151645E-1,6.550574303E-1,1.670521736E0
7.175326418E0,5.560956001E-1,3.551344872E-1,1.789508820E0
7.183260988E0,5.663508773E-1,1.371808052E-1,2.060512543E0
7.191195559E0,6.505537629E-1,1.365613937E-2,2.519145012E0
7.199099611E0,8.154588938E-1,-6.713008881E-2,2.997216225E0
7.207003664E0,9.686744809E-1,-1.585617065E-1,3.341240883E0
7.214907717E0,1.113610268E0,-3.321166039E-1,3.758479118E0
7.222872805E0,1.324378371E0,-5.781774521E-1,4.192861557E0
7.230776857E0,1.407915354E0,-7.554855347E-1,4.540529251E0
7.238680910E0,1.370628715E0,-8.581056595E-1,4.765389442E0
7.246584963E0,1.257976055E0,-9.481296539E-1,4.810015678E0
7.254489016E0,1.172925591E0,-1.014500141E0,4.397478104E0
7.262454104E0,1.272498846E0,-1.156570435E0,3.592758179E0
7.270388674E0,1.429337978E0,-1.320900440E0,2.918171883E0
7.278262209E0,1.613386631E0,-1.469959736E0,2.204997063E0
7.286196779E0,1.768976212E0,-1.508448124E0,1.537248611E0
7.294131350E0,1.870648623E0,-1.528845787E0,1.269400597E0
7.302096438E0,1.829143882E0,-1.424226284E0,1.428943634E0
7.310000490E0,1.602847576E0,-1.338480949E0,1.721123695E0
7.317874025E0,1.467186213E0,-1.279307842E0,1.851829052E0
7.325778078E0,1.375809789E0,-1.344900131E0,1.666769028E0
7.333712648E0,1.217368484E0,-1.347731590E0,1.280593395E0
7.341677736E0,9.657028913E-1,-1.425993919E0,7.504234314E-1
7.349612307E0,6.795597076E-1,-1.443916321E0,2.857480049E-1
7.357485842E0,3.681996465E-1,-1.506353855E0,-2.548170090E-2
7.365389895E0,1.707881689E-2,-1.641327381E0,-2.333168983E-1
7.373293947E0,-2.838835716E-1,-1.817855835E0,-2.701139450E-1
7.381259035E0,-3.601005077E-1,-2.012392521E0,-9.960746765E-2
7.389163088E0,-3.156290650E-1,-2.180548191E0,1.209664345E-1
7.397036623E0,-1.966786683E-1,-2.271512270E0,2.637009621E-1
7.404940676E0,-4.192948341E-3,-2.308788538E0,4.354524612E-1
7.412875246E0,2.905855775E-1,-2.320292711E0,4.027533531E-1
7.420840334E0,5.488851070E-1,-2.297482252E0,2.740969658E-1
7.428774904E0,7.207434773E-1,-2.240014076E0,-3.050899506E-2
7.436648439E0,6.720305681E-1,-2.188904285E0,-5.880842209E-1
7.444583010E0,6.373482347E-1,-2.158710957E0,-1.607363701E0
7.452487063E0,5.609700680E-1,-2.175823689E0,-2.639519215E0
7.460452150E0,4.354119599E-1,-2.173099518E0,-3.528644085E0
7.468356203E0,4.060686231E-1,-2.092694283E0,-4.147652626E0
7.476290773E0,4.783552885E-1,-2.144871235E0,-4.537197590E0
7.484194826E0,3.399727345E-1,-1.956547260E0,-4.193230152E0
7.492098879E0,1.605422199E-1,-1.827384949E0,-3.850863218E0
7.500063967E0,3.744637966E-1,-1.625791550E0,-3.462476254E0
7.507998537E0,4.998282194E-1,-1.500708103E0,-2.804926872E0
7.515933107E0,6.117023826E-1,-1.251972675E0,-2.047885418E0
7.523837160E0,7.615130544E-1,-1.208230019E0,-1.603195667E0
7.531741213E0,9.005858898E-1,-1.154526711E0,-1.454106808E0
7.539706301E0,8.288964033E-1,-1.166387081E0,-1.348188400E0
7.547610354E0,8.406239152E-1,-1.011442184E0,-1.195024014E0
7.555483889E0,4.977228045E-1,-9.068827629E-1,-8.532614708E-1
7.563418459E0,3.686919212E-1,-6.367096901E-1,-7.398033142E-1
7.571383547E0,5.611672997E-2,-6.303100586E-1,-1.069396019E0
7.579348635E0,5.318067968E-2,-5.849714279E-1,-1.404253483E0
7.587283205E0,-3.648146987E-3,-5.648016930E-1,-1.672600269E0
7.595156740E0,-7.426053286E-2,-4.423565865E-1,-1.582081318E0
7.603060793E0,-1.892526746E-1,-3.732833862E-1,-1.140007973E0
7.610964846E0,-3.894349933E-1,-3.189220428E-1,-1.193394661E-1
7.618929934E0,-4.099272490E-1,-1.899490356E-1,1.598917961E0
7.626833986E0,-4.569943249E-1,-5.375766754E-2,3.286487103E0
7.634707521E0,-3.867447078E-1,-4.329061508E-2,4.333055496E0
7.642611574E0,-2.571252584E-1,-6.197023392E-2,4.911895275E0
7.650546145E0,-1.355398893E-1,-5.424165726E-2,4.914549828E0
7.658511232E0,-1.143888235E-1,-9.257984161E-2,4.382128716E0
7.666384768E0,-2.850809693E-1,-2.363281250E-1,3.657537937E0
7.674319338E0,-4.413038492E-2,2.978448868E-1,2.913266182E0
7.682223391E0,-3.352435231E-1,4.350290298E-1,2.003495693E0
7.690127443E0,-3.590865731E-1,6.826848984E-1,1.158327103E0
7.698092531E0,-7.806645036E-1,5.520124435E-1,3.351135254E-1
7.706027102E0,-1.027956247E0,6.092939377E-1,-5.172815323E-1
7.713900637E0,-1.511322498E0,2.491793633E-1,-9.897947311E-1
7.721835207E0,-1.819868207E0,-1.150321960E-1,-1.162544250E0
7.729708742E0,-2.006429434E0,-5.947046280E-1,-9.932880402E-1
7.737704348E0,-2.013017178E0,-1.154530048E0,-2.395153046E-1
7.745669436E0,-1.669089675E0,-1.651551247E0,7.234158516E-1
7.753542971E0,-1.624983788E0,-2.072636604E0,2.615933895E0
7.761477541E0,-1.455162764E0,-2.173791409E0,4.116327763E0
7.769412111E0,-1.328933001E0,-2.071661472E0,5.005611897E0
7.777377199E0,-1.235084295E0,-1.981896400E0,5.237679482E0
7.785281252E0,-1.166929960E0,-1.922681332E0,4.839595795E0
7.793185305E0,-1.109550476E0,-1.928764343E0,3.945241451E0
7.801089357E0,-1.262663364E0,-1.897185802E0,3.022017956E0
7.808993410E0,-1.465966463E0,-1.796226025E0,2.138772964E0
7.817080568E0,-1.739676237E0,-1.688457489E0,1.434412003E0
7.825076174E0,-1.999915481E0,-1.605926514E0,8.602738380E-1
7.833010744E0,-2.150852680E0,-1.525200844E0,4.333553314E-1
7.840945314E0,-2.302687168E0,-1.380710602E0,1.750078201E-1
7.848910402E0,-2.423776150E0,-1.303047180E0,1.043682098E-1
7.856875490E0,-2.491972685E0,-1.234264851E0,2.307224274E-2
7.864810061E0,-2.456088066E0,-1.287608147E0,-1.449799538E-1
7.872683596E0,-2.279760361E0,-1.378242970E0,-3.073358536E-1
7.880587648E0,-2.065016270E0,-1.572165489E0,-4.388852119E-1
7.888491701E0,-1.989505410E0,-1.774507999E0,-4.542064667E-1
7.896456789E0,-1.882862329E0,-1.905930519E0,-2.479391098E-1
7.904482912E0,-1.646144390E0,-2.074728727E0,3.881311417E-1
7.912448000E0,-1.374608278E0,-2.099339008E0,1.637272835E0
7.920352053E0,-1.390581727E0,-2.056493282E0,2.520780563E0
7.928286623E0,-8.683047295E-1,-2.125692368E0,2.806577682E0
7.936251711E0,-4.504585862E-1,-2.251065969E0,2.422367096E0
7.944125246E0,-2.161830962E-1,-2.299155474E0,1.765418053E0
7.951998781E0,-7.787207961E-1,-2.109540462E0,9.393463135E-1
7.959963869E0,-1.151251197E0,-1.898619890E0,-1.896286011E-2
7.967898439E0,-1.478897333E0,-1.861003160E0,-9.734616280E-1
7.975863527E0,-1.781922102E0,-1.787174463E0,-1.754216194E0
7.983767580E0,-1.907044649E0,-1.788899660E0,-2.161022186E0
7.991671633E0,-1.764720678E0,-1.777963161E0,-2.326783180E0
7.999636721E0,-1.561642170E0,-1.858635187E0,-2.498800278E0
8.007571291E0,-1.447079420E0,-1.933204412E0,-2.601628780E0
8.015566896E0,-1.463809013E0,-1.946285963E0,-2.633990765E0
8.023470949E0,-1.595274448E0,-2.006016493E0,-2.392077923E0
8.031436037E0,-1.644182920E0,-1.989356279E0,-2.012795925E0
8.039340090E0,-1.641430140E0,-1.888052702E0,-1.606348515E0
8.047274660E0,-1.575487256E0,-1.761564732E0,-1.386869431E0
8.055270266E0,-1.527768850E0,-1.611943245E0,-1.319593906E0
8.063204836E0,-1.473676920E0,-1.461279154E0,-1.380220413E0
8.071108889E0,-1.460920095E0,-1.360427141E0,-1.453584194E0
8.079012941E0,-1.459153175E0,-1.257219553E0,-1.588806152E0
8.086916994E0,-1.414418936E0,-1.117031097E0,-1.559213638E0
8.094882082E0,-1.227405310E0,-9.863433838E-1,-1.418447018E0
8.102755617E0,-1.109326601E0,-9.255223274E-1,-1.434355259E0
8.110659670E0,-9.176243544E-1,-7.841324806E-1,-1.309756756E0
8.118624758E0,-6.708471775E-1,-5.451197624E-1,-8.938331604E-1
8.126559328E0,-4.482439160E-1,-3.929495811E-1,-2.080249786E-1
8.134554934E0,-2.725440264E-1,-2.700448036E-1,3.298864365E-1
8.142458986E0,-1.081449389E-1,-1.908774376E-1,7.093868256E-1
8.150363039E0,3.507447243E-2,-7.816028595E-2,9.590206146E-1
8.158267092E0,1.317439079E-1,7.634115219E-2,1.030578613E0
8.166171145E0,1.186657548E-1,2.240524292E-1,9.142017365E-1
8.174166750E0,-1.113724709E-1,3.703708649E-1,5.724792480E-1
8.182131838E0,-2.475651503E-1,5.547013283E-1,1.857919693E-1
8.190035891E0,-3.001603484E-1,6.737236977E-1,-4.953479767E-2
8.197939943E0,-3.394520283E-1,7.924809456E-1,-1.230087280E-1
8.205874514E0,-2.886070013E-1,9.200916290E-1,-3.922271729E-2
8.213839602E0,-2.336823940E-2,1.059467316E0,2.997522354E-1
8.221743654E0,1.521054506E-1,1.134092808E0,9.154729843E-1
8.229617189E0,4.081262350E-1,1.223406315E0,1.801984787E0
8.237521242E0,6.862599850E-1,1.213091373E0,2.604567528E0
8.245425295E0,1.075723171E0,1.272606850E0,3.279354095E0
8.253390383E0,1.511838317E0,1.457895756E0,3.849735260E0
8.261324953E0,1.642025948E0,1.616996288E0,4.140135765E0
8.269229006E0,1.512676001E0,1.796813488E0,3.732020378E0
8.277163576E0,1.290900826E0,1.541656971E0,2.995571136E0
8.285037111E0,1.106140137E0,1.157867432E0,2.238317490E0
8.293032717E0,8.783919811E-1,5.988812447E-1,1.790772438E0
8.300936770E0,5.999734402E-1,-7.377624512E-3,1.853356361E0
8.308810305E0,4.603042603E-1,-7.145705223E-1,2.546056747E0
8.316714357E0,4.226222038E-1,-1.377758265E0,3.465530396E0
8.324618410E0,4.180562496E-1,-1.870257616E0,4.704971313E0
8.332583498E0,5.361909866E-1,-1.892252922E0,5.924946785E0
8.340548586E0,5.719809532E-1,-1.693788290E0,7.216352463E0
8.348452639E0,7.459934950E-1,-1.500040054E0,7.491139412E0
8.356326174E0,1.007116437E0,-1.424150944E0,6.690620422E0
8.364260744E0,1.059587955E0,-1.429588318E0,5.124439240E0
8.372225832E0,8.326402903E-1,-1.319765091E0,3.296891212E0
8.380160402E0,4.112712145E-1,-1.239072561E0,1.578317642E0
8.388064455E0,1.341392994E-1,-1.075993538E0,3.614349365E-1
8.395999025E0,-6.020820141E-2,-1.004733562E0,-8.397378922E-1
8.403933596E0,3.895223141E-2,-9.563694000E-1,-1.414801121E0
8.411898684E0,2.153320312E-1,-9.705014229E-1,-1.359789848E0
8.419802736E0,4.017039537E-1,-9.741082191E-1,-8.258671761E-1
8.427676271E0,4.576972723E-1,-1.038912296E0,1.676654816E-1
8.435580324E0,4.398654699E-1,-1.130786896E0,1.086430550E0
8.443514895E0,5.551489592E-1,-1.268272161E0,1.594843864E0
8.451510500E0,6.785444021E-1,-1.487118721E0,1.788327217E0
8.459414553E0,7.041335106E-1,-1.674412489E0,1.617290497E0
8.467318605E0,5.881271362E-1,-1.813750982E0,1.226070404E0
8.475192141E0,4.571506977E-1,-1.842772961E0,7.643060684E-1
8.483126711E0,2.059487104E-1,-1.892071247E0,-2.708625793E-2
8.491091799E0,-5.893158913E-2,-1.906758785E0,-9.201760292E-1
8.498995852E0,-5.616804957E-1,-1.864622593E0,-1.685522556E0
8.506899904E0,-2.301117182E-1,-1.811563730E0,-2.290080547E0
8.514834475E0,-4.827071428E-1,-1.932886600E0,-3.306241035E0
8.522799563E0,-9.776081443E-1,-1.759355307E0,-3.739178658E0
8.530764650E0,-1.111950517E0,-1.758159399E0,-3.863507748E0
8.538668703E0,-1.218415499E0,-1.726549864E0,-3.693330765E0
8.546542238E0,-1.215574265E0,-1.652835369E0,-3.185497284E0
8.554446291E0,-1.017068386E0,-1.559350491E0,-2.682049274E0
8.562350344E0,-7.127684951E-1,-1.519526482E0,-2.346557617E0
8.570345949E0,-2.932968140E-1,-1.495037079E0,-1.914689541E0
8.578250002E0,3.497242928E-3,-1.371291876E0,-1.610515118E0
8.586123537E0,1.494204998E-1,-1.383870363E0,-1.637069702E0
8.593997072E0,1.782447100E-1,-1.339668512E0,-2.008257866E0
8.601931643E0,1.690051556E-1,-1.276223421E0,-2.581908226E0
8.609896730E0,9.293466806E-2,-1.261310339E0,-3.103616714E0
8.617800783E0,8.162653446E-2,-1.239177942E0,-3.462197781E0
8.625674318E0,7.787919044E-2,-1.190179348E0,-3.754768848E0
8.633578371E0,1.064553857E-1,-1.076556683E0,-3.977446556E0
8.641482424E0,2.013602853E-1,-9.732489586E-1,-3.926257610E0
8.649478029E0,2.444841862E-1,-8.350284100E-1,-3.452808857E0
8.657382082E0,2.916603386E-1,-7.092297077E-1,-2.468866825E0
8.665286135E0,3.652561903E-1,-5.528712273E-1,-1.417312145E0
8.673220705E0,4.995112419E-1,-4.506425858E-1,-6.688432693E-1
8.681124758E0,7.232096195E-1,-3.616352081E-1,2.587947845E-1
8.689089846E0,8.086849451E-1,-2.264328003E-1,9.957342148E-1
8.697024416E0,7.420397997E-1,-1.529660225E-1,1.409185410E0
8.704958986E0,5.743179321E-1,-2.151918411E-2,1.475058556E0
8.712863039E0,2.872506976E-1,1.462163925E-1,1.343255043E0
8.720797609E0,-2.179799974E-2,3.086872101E-1,1.080125809E0
8.728732180E0,-2.921414077E-1,4.603199959E-1,8.956623077E-1
8.736636232E0,-5.225524902E-1,5.471401215E-1,8.002233505E-1
8.744509768E0,-6.962712407E-1,5.636491776E-1,8.241014481E-1
8.752413820E0,-7.718455195E-1,5.311994553E-1,9.206933975E-1
8.760317873E0,-7.675080895E-1,3.991398811E-1,1.209828377E0
8.768282961E0,-8.456607461E-1,2.750968933E-1,1.684344292E0
8.776156496E0,-8.351787925E-1,2.338671684E-1,2.518733025E0
8.784060549E0,-9.600203037E-1,2.562294006E-1,3.146759033E0
8.792025637E0,-1.130792499E0,3.809800148E-1,3.557363510E0
8.799960207E0,-1.259192348E0,4.852523804E-1,3.457521439E0
8.807925295E0,-1.539190531E0,3.746428490E-1,2.849814415E0
8.815829348E0,-1.770368218E0,2.575283051E-1,2.294482231E0
8.823733400E0,-2.053425074E0,3.632640839E-2,1.691967964E0
8.831698488E0,-2.360803604E0,-1.917109489E-1,1.055902481E0
8.839602541E0,-2.614645243E0,-4.938914776E-1,7.742719650E-1
8.847567629E0,-2.597291470E0,-7.836918831E-1,9.294643402E-1
8.855441164E0,-2.488308907E0,-1.165765285E0,1.697121620E0
8.863345217E0,-2.215854168E0,-1.474374771E0,2.782578468E0
8.871279787E0,-2.008759975E0,-1.774843454E0,3.874961853E0
8.879214357E0,-1.715245724E0,-1.818444252E0,4.992516518E0
8.887179445E0,-1.604094505E0,-1.717706919E0,5.797571182E0
8.895052980E0,-1.653317809E0,-1.608065844E0,6.199833870E0
8.902957033E0,-1.745730519E0,-1.517467976E0,6.195868492E0
8.910922121E0,-1.807044148E0,-1.456325769E0,5.558467865E0
8.918856691E0,-1.931686163E0,-1.399492264E0,4.654271126E0
8.926821779E0,-2.092366934E0,-1.424875021E0,3.769604683E0
8.934725832E0,-2.683875799E0,-1.485885143E0,2.640897751E0
8.942599367E0,-2.600404978E0,-1.099123478E0,1.453962326E0
8.950533938E0,-2.324024677E0,-1.395505190E0,6.674957275E-2
8.958407473E0,-2.338381529E0,-1.324704170E0,-7.366685867E-1
8.966403078E0,-2.492033482E0,-1.357702732E0,-1.075970173E0
8.974307131E0,-2.407826900E0,-1.431226969E0,-1.001587868E0
8.982180666E0,-2.222850561E0,-1.468931913E0,-5.817375183E-1
8.990084719E0,-1.894752026E0,-1.520342827E0,-1.316041946E-1
8.997958254E0,-1.837897897E0,-1.579068184E0,1.889343262E-1
9.005953859E0,-1.452446580E0,-1.566078901E0,2.072210312E-1
9.013827395E0,-1.234779239E0,-1.565818787E0,2.070770264E-1
9.021731447E0,-1.071291089E0,-1.598245382E0,9.066390991E-2
9.029666018E0,-1.039082408E0,-1.609490156E0,-1.487874985E-1
9.037600588E0,-9.708219767E-1,-1.599766254E0,-4.696693420E-1
9.045565676E0,-1.069682598E0,-1.680673480E0,-9.706239700E-1
9.053530764E0,-1.163151264E0,-1.594566107E0,-1.535392284E0
9.061404299E0,-1.061107993E0,-1.728520513E0,-2.193336010E0
9.069308352E0,-9.742643833E-1,-1.784915090E0,-2.716519833E0
9.077212404E0,-7.930393219E-1,-1.747397304E0,-3.062659740E0
9.085177492E0,-8.131051660E-1,-1.735634446E0,-3.137053490E0
9.093142580E0,-8.696106672E-1,-1.683314562E0,-2.934550285E0
9.101016115E0,-5.963578224E-1,-1.667743921E0,-2.770930767E0
9.108920168E0,-4.514977634E-1,-1.705188751E0,-2.635835648E0
9.116824221E0,-4.262672067E-1,-1.734001279E0,-2.320837498E0
9.124789309E0,-4.811185002E-1,-1.730567336E0,-1.997338295E0
9.132754396E0,-6.483820081E-1,-1.708315849E0,-1.779616833E0
9.140658449E0,-5.623871684E-1,-1.623302698E0,-1.911202431E0
9.148562502E0,-6.132673621E-1,-1.548094749E0,-2.309214115E0
9.156466555E0,-8.368039131E-1,-1.454878807E0,-2.723744392E0
9.164431643E0,-1.028344393E0,-1.265120745E0,-3.267934799E0
9.172396730E0,-1.147381663E0,-1.071615934E0,-3.870923996E0
9.180300783E0,-1.229341745E0,-9.213190079E-1,-4.123336315E0
9.188174318E0,-1.385887504E0,-6.882522106E-1,-4.146442890E0
9.196108889E0,-1.411634088E0,-5.650260448E-1,-3.770261288E0
9.204073977E0,-1.281703234E0,-4.898684025E-1,-3.034306049E0
9.211978029E0,-1.066452026E0,-2.732484341E-1,-2.030548096E0
9.219851564E0,-8.358430266E-1,-3.271126747E-2,-5.583810806E-1
9.227755617E0,-4.686584473E-1,2.480492592E-1,9.856491089E-1
9.235659670E0,-6.002426147E-2,4.623031616E-1,2.255652428E0
9.243655275E0,3.039785624E-1,6.451704502E-1,3.686947823E0
9.251559328E0,4.786515236E-1,8.275353909E-1,4.581861496E0
9.259463381E0,5.930515528E-1,9.721295834E-1,4.713237762E0
9.267428469E0,5.291694403E-1,1.002213001E0,4.289047241E0
9.275363039E0,4.592816830E-1,1.027002573E0,3.558018684E0
9.283328127E0,3.780754805E-1,1.031681776E0,2.833476067E0
9.291201662E0,2.794885635E-1,1.025858164E0,2.314112663E0
9.299105715E0,3.002964258E-1,9.179918766E-1,1.986869812E0
9.306979250E0,3.198126554E-1,7.970142365E-1,1.915371895E0
9.314913820E0,4.248588085E-1,7.039062977E-1,1.962270737E0
9.322878908E0,7.497158051E-1,5.885086060E-1,2.241110802E0
9.330782961E0,9.721579552E-1,5.519306660E-1,2.871966362E0
9.338717531E0,1.358323097E0,6.905059814E-1,3.500956535E0
9.346621584E0,1.657455325E0,9.578971863E-1,3.794342995E0
9.354556154E0,1.721167803E0,1.100851059E0,3.925580978E0
9.362551760E0,1.692670465E0,1.085728407E0,4.045747757E0
9.370486330E0,1.802592516E0,6.636457443E-1,3.839119911E0
9.378390383E0,1.669861197E0,3.292136192E-1,3.355786324E0
9.386355471E0,1.418209195E0,-1.977207661E-1,3.376074791E0
9.394290041E0,1.095517159E0,-8.815200329E-1,3.475135803E0
9.402255129E0,5.787591934E-1,-1.572128773E0,3.617088318E0
9.410128664E0,1.606878042E-1,-1.827107906E0,3.928457260E0
9.418063234E0,-1.593304873E-1,-2.111393452E0,4.185576439E0
9.425967287E0,1.033818722E-2,-2.267915010E0,4.349392891E0
9.433871340E0,4.227172136E-1,-2.433499336E0,4.108530045E0
9.441866945E0,7.162630558E-1,-2.553655148E0,3.488258362E0
9.449770998E0,7.850764990E-1,-2.627437115E0,2.498477936E0
9.457675051E0,5.904163122E-1,-2.522899628E0,9.352359772E-1
9.465609621E0,3.155204058E-1,-2.386507034E0,-2.871961594E-1
9.473544191E0,1.344751120E-1,-2.198796272E0,-8.112182617E-1
9.481509279E0,-2.069473267E-4,-2.034357786E0,-9.994726181E-1
9.489382814E0,1.563072205E-2,-1.886000633E0,-9.451813698E-1
9.497286867E0,1.577440500E-1,-1.774084568E0,-8.244147301E-1
9.505251955E0,2.734682560E-1,-1.671724558E0,-7.465577126E-1
9.513156008E0,3.604147434E-1,-1.578664064E0,-6.147651672E-1
9.521121096E0,3.099868298E-1,-1.525157213E0,-7.680869102E-1
9.529025148E0,3.542581797E-1,-1.554933786E0,-1.012299061E0
9.536929201E0,3.644733429E-1,-1.662645340E0,-1.373724461E0
9.544833254E0,2.096850872E-1,-1.789614677E0,-1.600052357E0
9.552737307E0,5.096030235E-2,-1.860229731E0,-1.736384392E0
9.560702395E0,-2.081357241E-1,-1.937688589E0,-1.804818630E0
9.568667482E0,-4.222764373E-1,-1.963056326E0,-1.765170097E0
9.576541018E0,-5.599061251E-1,-2.014358521E0,-1.740538120E0
9.584445070E0,-6.623758674E-1,-2.013339758E0,-1.696209431E0
9.592349123E0,-7.140765190E-1,-2.105760574E0,-1.617081642E0
9.600344729E0,-6.667389870E-1,-2.068497181E0,-1.768164635E0
9.608248781E0,-4.831966758E-1,-2.058815002E0,-1.780289173E0
9.616152834E0,-5.249634385E-1,-1.964472890E0,-1.733442307E0
9.624087404E0,-6.333244443E-1,-1.834077120E0,-1.599741459E0
9.632021975E0,-6.554001570E-1,-1.701351404E0,-1.479956627E0
9.639987063E0,-5.727774501E-1,-1.609489441E0,-1.426611423E0
9.647891115E0,-4.687182903E-1,-1.566640615E0,-1.527948856E0
9.655764650E0,-2.185349464E-1,-1.548949718E0,-1.625247002E0
9.663668703E0,-3.399550915E-2,-1.464888334E0,-1.620380878E0
9.671603273E0,1.070499420E-3,-1.198020935E0,-1.588828087E0
9.679537844E0,7.757699490E-2,-1.214727402E0,-2.097727299E0
9.687502932E0,-2.597091198E-1,-9.405038357E-1,-2.806627750E0
9.695437502E0,-3.776498437E-1,-8.670818806E-1,-3.404407978E0
9.703341555E0,-5.207777619E-1,-6.989171505E-1,-4.020130157E0
9.711276125E0,-4.977591336E-1,-5.920577049E-1,-4.284370899E0
9.719271730E0,-4.883191586E-1,-3.876743317E-1,-3.962412834E0
9.727175783E0,-1.248637438E-1,-2.011764050E-1,-3.358372211E0
9.735049318E0,1.786593795E-1,-9.082102776E-2,-2.457859039E0
9.743014406E0,3.405523300E-1,8.457183838E-2,-1.292368889E0
9.750948977E0,4.686940312E-1,1.789636612E-1,-6.132984161E-2
9.758914064E0,5.133853555E-1,3.320693970E-1,8.846454620E-1
9.766818117E0,4.309576154E-1,5.628526211E-1,1.759900093E0
9.774722170E0,3.467980027E-1,7.356822491E-1,2.416743279E0
9.782687258E0,1.773923039E-1,8.326058388E-1,2.732249260E0
9.790621828E0,-4.052856565E-2,9.381136894E-1,2.752118111E0
9.798586916E0,-3.412073851E-2,9.924900532E-1,2.321132660E0
9.806490969E0,-2.646380663E-1,9.806768894E-1,1.547497749E0
9.814395021E0,-1.533319354E-1,8.975083828E-1,9.265565872E-1
9.822329592E0,-4.719574451E-1,7.142603397E-1,4.562330246E-1
9.830203127E0,-8.287283778E-1,4.958400726E-1,4.202938080E-1
9.838198732E0,-1.200120449E0,2.477316856E-1,8.898420334E-1
9.846163820E0,-1.397125840E0,4.025316238E-2,1.742248535E0
9.854037355E0,-1.506790042E0,-2.885866165E-2,2.809725761E0
9.861941408E0,-1.269690394E0,4.625797272E-3,3.980778694E0
9.869845461E0,-1.231143475E0,1.936573982E-1,4.583656311E0
9.877780031E0,-1.157411814E0,3.184132576E-1,4.815406799E0
9.885745119E0,-1.276721835E0,3.445396423E-1,4.643942833E0
9.893618654E0,-1.264498830E0,2.201986313E-1,4.269678116E0
9.901492189E0,-1.385710478E0,-1.084768772E-1,3.976946831E0
9.909365725E0,-1.561083555E0,-5.804717541E-1,3.748488426E0
9.917330813E0,-1.633568525E0,-1.281147957E0,3.978043556E0
9.925265383E0,-1.638709307E0,-1.758488655E0,4.694935799E0
9.933138918E0,-1.508110523E0,-2.245318413E0,5.618246078E0
9.941042971E0,-1.234953642E0,-2.426338673E0,6.558938026E0
9.948947023E0,-1.082685471E0,-2.343066692E0,6.827335358E0
9.956942629E0,-9.344597459E-1,-2.220211506E0,6.405529022E0
9.964846682E0,-1.119486928E0,-2.060970306E0,4.916683197E0
9.972720217E0,-1.434061766E0,-1.968382597E0,2.826423645E0
9.980624270E0,-1.623465776E0,-1.716407061E0,8.595647812E-1
9.988528322E0,-1.959778309E0,-1.582276344E0,-1.229652882E0
9.996493410E0,-2.188937187E0,-1.495910883E0,-2.911850452E0
1.000442798E1,-2.491855621E0,-1.450659037E0,-3.770561695E0
1.001236255E1,-2.646310568E0,-1.409202576E0,-3.672227859E0
1.002026660E1,-2.562701702E0,-1.338356972E0,-2.853713989E0
1.002817066E1,-2.492450476E0,-1.370732069E0,-1.679602146E0
1.003610523E1,-2.140624762E0,-1.448076248E0,-7.085790634E-1
1.004407031E1,-1.607590914E0,-1.569817066E0,1.834859848E-1
1.005194385E1,-9.916650057E-1,-1.658656836E0,6.370582581E-1
1.005984790E1,-4.906912446E-1,-1.681088448E0,7.249011993E-1
1.006775196E1,-1.983313411E-1,-1.665398121E0,5.853528976E-1
1.007571704E1,7.902590558E-3,-1.616916656E0,1.572408676E-1
1.008359058E1,1.361839622E-1,-1.560741186E0,-2.821254730E-1
1.009152515E1,1.235641316E-1,-1.486735582E0,-7.009057999E-1
1.009945972E1,1.381486952E-1,-1.424376488E0,-1.226670265E0
1.010736377E1,1.301959604E-1,-1.392361879E0,-1.754245758E0
1.011535938E1,9.028027952E-2,-1.403084040E0,-2.230756760E0
1.012326343E1,-2.351838350E-2,-1.459221125E0,-2.598225117E0
1.013116748E1,-7.192763686E-2,-1.565320253E0,-3.033940792E0
1.013913257E1,-4.421222210E-2,-1.709158897E0,-3.468528271E0
1.014706714E1,-1.104650795E-1,-1.799344897E0,-3.666200161E0
1.015503223E1,-2.087135613E-1,-1.826628089E0,-3.601472378E0
1.016290576E1,-3.686471283E-1,-1.856593251E0,-3.398427963E0
1.017082851E1,-3.689175546E-1,-1.736459732E0,-2.877406120E0
1.017873256E1,-4.502279758E-1,-1.638638496E0,-2.442168236E0
1.018660610E1,-4.495590031E-1,-1.476921558E0,-1.883527279E0
1.019457119E1,-4.131265879E-1,-1.325945616E0,-1.743822575E0
1.020247524E1,-4.035923481E-1,-1.217086554E0,-2.030794144E0
1.021034877E1,-5.275956392E-1,-1.166564703E0,-2.486928463E0
1.021825283E1,-8.198817968E-1,-9.971687794E-1,-2.912187576E0
1.022615688E1,-1.076393604E0,-7.696278095E-1,-3.405158043E0
1.023415249E1,-1.399306536E0,-6.496121883E-1,-3.677752018E0
1.024205654E1,-1.485468388E0,-4.320228100E-1,-3.659746170E0
1.024993007E1,-1.380311608E0,-2.074828148E-1,-3.247772217E0
1.025783412E1,-1.077456594E0,-3.838562965E-2,-2.398625374E0
1.026573818E1,-7.672948837E-1,1.261339188E-1,-1.412703514E0
1.027373378E1,-4.258751869E-1,2.338688374E-1,-1.375675201E-1
1.028163784E1,-1.060504913E-1,2.891407013E-1,1.267353058E0
1.028951137E1,1.537529230E-1,4.197354317E-1,2.568790436E0
1.029741542E1,3.955305815E-1,6.400341988E-1,3.885866165E0
1.030531948E1,4.296053648E-1,8.528287411E-1,4.542311668E0
1.031331508E1,2.850722075E-1,9.621667862E-1,4.433029175E0
1.032118862E1,2.266410589E-1,9.494018555E-1,3.916425705E0
1.032912319E1,9.590983391E-2,9.505362511E-1,3.145398140E0
1.033699672E1,2.168631554E-2,8.907883167E-1,2.301304817E0
1.034493129E1,2.709496021E-2,7.267768383E-1,1.733667374E0
1.035286586E1,1.028537750E-1,5.947754383E-1,1.239688873E0
1.036083095E1,1.854538918E-1,5.245623589E-1,1.259153366E0
1.036870449E1,3.570864201E-1,5.792346001E-1,1.853739738E0
1.037663906E1,6.903743744E-1,7.470574379E-1,2.626401901E0
1.038457363E1,1.183584332E0,1.053786516E0,3.333629608E0
1.039253872E1,1.562052727E0,1.298341990E0,3.732919693E0
1.040044277E1,1.665437222E0,1.301647425E0,4.195981026E0
1.040834682E1,1.900226831E0,1.155869722E0,4.429026604E0
1.041631191E1,2.006153584E0,6.763045788E-1,4.470363617E0
1.042424648E1,1.860777259E0,6.509375572E-2,4.312521935E0
1.043218105E1,1.535012603E0,-5.892622471E-1,4.044174194E0
1.044014614E1,1.160106897E0,-1.318137407E0,3.760802269E0
1.044805019E1,8.658487797E-1,-1.873424530E0,3.835149765E0
1.045595424E1,6.774033308E-1,-2.267324448E0,4.181088448E0
1.046382778E1,5.264395475E-1,-2.455552101E0,4.296792030E0
1.047182338E1,6.395978928E-1,-2.546958208E0,4.086124420E0
1.047978847E1,8.636043072E-1,-2.600983143E0,3.516369820E0
1.048772304E1,7.970834970E-1,-2.510727882E0,2.719385147E0
1.049562709E1,6.706194878E-1,-2.366688728E0,2.026371956E0
1.050356166E1,6.629043818E-1,-2.216805458E0,1.135018349E0
1.051155727E1,6.305972338E-1,-2.087207794E0,3.819522858E-1
1.051952236E1,6.954171658E-1,-1.981146336E0,-2.406234741E-1
1.052739589E1,8.467900753E-1,-1.906435728E0,-5.972499847E-1
1.053529995E1,9.450489283E-1,-1.871881247E0,-9.079780579E-1
1.054320400E1,1.128489256E0,-1.878061056E0,-1.143117905E0
1.055116909E1,1.202518582E0,-1.831213713E0,-1.224447727E0
1.055907314E1,1.202992320E0,-1.962004185E0,-1.541439056E0
1.056697719E1,1.100247741E0,-1.948326588E0,-1.697637081E0
1.057491176E1,9.811435938E-1,-2.043836832E0,-1.668865204E0
1.058284633E1,8.505647182E-1,-2.103416443E0,-1.392430782E0
1.059084194E1,6.101452112E-1,-2.120146275E0,-8.729314804E-1
1.059877651E1,4.137465954E-1,-2.217684746E0,-5.889110565E-1
1.060668056E1,2.428472042E-1,-2.224122047E0,-5.528745651E-1
1.061461513E1,-5.590391159E-2,-2.246577024E0,-6.231679916E-1
1.062248867E1,-2.333651781E-1,-2.231426239E0,-6.347103119E-1
1.063048427E1,-5.040529370E-1,-2.168792248E0,-7.478475571E-1
1.063838832E1,-7.299968600E-1,-2.057694435E0,-9.454183578E-1
1.064626186E1,-8.217299581E-1,-2.014293671E0,-1.275236130E0
1.065413540E1,-8.820129037E-1,-1.923710108E0,-1.890212059E0
1.066206996E1,-8.834105730E-1,-1.855711579E0,-2.311205864E0
1.067000454E1,-8.273129463E-1,-1.752217531E0,-2.654201508E0
1.067796962E1,-7.576593161E-1,-1.670616865E0,-2.945478916E0
1.068587368E1,-8.551089168E-1,-1.568506479E0,-3.354649067E0
1.069377773E1,-7.632402182E-1,-1.420914888E0,-3.800723076E0
1.070165126E1,-6.310059428E-1,-1.300507307E0,-4.183757305E0
1.070964687E1,-4.432916939E-1,-1.185475826E0,-4.227002621E0
1.071758144E1,-2.644724250E-1,-1.017369747E0,-3.990795135E0
1.072545498E1,-7.474893332E-2,-8.269023895E-1,-3.628439426E0
1.073335903E1,8.230054379E-2,-6.326577663E-1,-3.129807949E0
1.074126308E1,1.288905740E-1,-4.461498260E-1,-2.628300667E0
1.074925869E1,1.402994394E-1,-3.705060482E-1,-2.348014832E0
1.075716274E1,2.168922424E-1,-2.712309361E-1,-2.157607555E0
1.076503627E1,2.965623736E-1,-2.424280643E-1,-1.792176247E0
1.077294033E1,3.096365333E-1,-2.510759830E-1,-1.283911228E0
1.078084438E1,3.112195730E-1,-2.176523209E-1,-8.149204254E-1
1.078880947E1,1.997410059E-1,-1.245822906E-1,-8.386325836E-2
1.079668300E1,7.353842258E-2,5.596494675E-2,6.979465485E-1
1.080458706E1,2.579405904E-2,1.932630539E-1,1.347195625E0
1.081255214E1,2.816510201E-2,3.412842751E-1,1.898065567E0
1.082048671E1,1.904475689E-2,5.347385406E-1,2.382333755E0
1.082839077E1,3.350244462E-2,7.320811749E-1,2.757389069E0
1.083632534E1,-4.616992176E-2,8.958613873E-1,2.925730705E0
1.084419887E1,-2.606305480E-1,9.817614555E-1,3.021847725E0
1.085210292E1,-5.044780374E-1,9.964284897E-1,2.952571869E0
1.085997646E1,-7.264155149E-1,9.957122803E-1,2.687376022E0
1.086794155E1,-1.134058714E0,9.133119583E-1,2.409221649E0
1.087590664E1,-1.353555083E0,8.116815090E-1,2.377877235E0
1.088378017E1,-1.568529606E0,7.048144341E-1,2.553042412E0
1.089168422E1,-1.693786025E0,6.590285301E-1,3.005799294E0
1.089964931E1,-1.811765790E0,6.552789211E-1,3.774377823E0
1.090764492E1,-1.749978185E0,7.139716148E-1,4.351656914E0
1.091554897E1,-1.666351438E0,8.325157166E-1,4.502745628E0
1.092342250E1,-1.660814047E0,1.062723398E0,4.387027740E0
1.093135707E1,-1.700619578E0,1.088273525E0,3.980719566E0
1.093923061E1,-1.646749258E0,9.329845905E-1,3.331839561E0
1.094719570E1,-1.653796434E0,6.520011425E-1,2.787651062E0
1.095513027E1,-1.816496134E0,1.882565022E-1,2.282343864E0
1.096306484E1,-2.089245081E0,-5.568580627E-1,2.126295090E0
1.097096889E1,-2.115237474E0,-1.384440660E0,2.585371971E0
1.097890346E1,-2.034541368E0,-2.010767460E0,3.359601974E0
1.098689907E1,-1.746297956E0,-2.553519249E0,4.324402809E0
1.099486416E1,-1.577644348E0,-2.823286533E0,5.046906471E0
1.100273769E1,-1.684608817E0,-2.798458576E0,5.065865517E0
1.101064174E1,-1.736785650E0,-2.690196514E0,4.218451500E0
1.101857631E1,-1.801025748E0,-2.626588345E0,2.885717392E0
1.102654140E1,-2.030900002E0,-2.412895203E0,1.399525642E0
1.103447597E1,-2.271603823E0,-2.234822273E0,3.843879700E-2
1.104234951E1,-2.409720659E0,-1.966234565E0,-1.394219875E0
1.105025356E1,-2.365187407E0,-1.860950708E0,-2.546174526E0
1.105815761E1,-2.149637938E0,-1.770335436E0,-3.044855595E0
1.106615322E1,-1.957743526E0,-1.735941410E0,-3.028642178E0
1.107408779E1,-1.736463904E0,-1.733758450E0,-2.552906036E0
1.108199184E1,-1.430725455E0,-1.818204165E0,-1.925376415E0
1.108995693E1,-1.067412972E0,-1.916360378E0,-1.488018990E0
1.109786098E1,-6.524396539E-1,-2.042533398E0,-9.441928864E-1
1.110585659E1,-2.533272803E-1,-2.040956497E0,-4.421901703E-1
1.111382167E1,-1.460106485E-2,-2.024475336E0,-2.872419357E-1
1.112169521E1,1.349623054E-1,-1.979870796E0,-4.567756653E-1
1.112959926E1,2.580212653E-1,-1.873521447E0,-8.288078308E-1
1.113750332E1,2.835980356E-1,-1.776131153E0,-1.279363155E0
1.114546840E1,1.673569679E-1,-1.717106342E0,-1.868082523E0
1.115337246E1,9.290404618E-2,-1.685937166E0,-2.347342491E0
1.116130703E1,-1.203136146E-2,-1.647030592E0,-2.873611927E0
1.116921108E1,-7.108430564E-2,-1.660909414E0,-3.253659725E0
1.117714565E1,-8.920666575E-2,-1.680487871E0,-3.471374035E0
1.118511074E1,-3.521215916E-2,-1.673971653E0,-3.560545921E0
1.119301479E1,2.464461327E-2,-1.684397221E0,-3.638544083E0
1.120091884E1,7.848113775E-2,-1.657719374E0,-3.551740170E0
1.120888393E1,1.189939380E-1,-1.633079529E0,-3.362052917E0
1.121681850E1,1.477409601E-1,-1.564020157E0,-3.121552944E0
1.122481411E1,1.980299652E-1,-1.499517918E0,-2.683752537E0
1.123277919E1,2.709133029E-1,-1.416093111E0,-2.385021210E0
1.124065273E1,2.781845331E-1,-1.287784100E0,-2.325770855E0
1.124855678E1,1.227650642E-1,-1.196052790E0,-2.350399971E0
1.125649135E1,-1.621778011E-1,-1.005229473E0,-2.568667412E0
1.126448696E1,-4.140814245E-1,-8.872363567E-1,-2.945763111E0
1.127239101E1,-4.493490756E-1,-6.907088757E-1,-3.262528419E0
1.128029506E1,-5.249023438E-1,-4.449279308E-1,-3.491909504E0
1.128819912E1,-5.892360210E-1,-1.977086067E-1,-3.361891270E0
1.129610317E1,-5.116062164E-1,-2.510261536E-2,-2.900938034E0
1.130403774E1,-3.136410117E-1,1.238968372E-1,-1.837971210E0
1.131200283E1,-1.538002491E-1,2.583005428E-1,-3.572435379E-1
1.131993740E1,-1.195324659E-1,5.735771656E-1,1.309059143E0
1.132784145E1,-8.627551794E-2,8.232424259E-1,2.641629219E0
1.133577602E1,-5.062514544E-2,1.077059507E0,3.850378990E0
1.134374111E1,-5.929166079E-2,1.267373323E0,4.542880058E0
1.135164516E1,2.906787395E-2,1.412926912E0,4.729272842E0
1.135948818E1,-2.212014794E-1,1.547379017E0,4.584498405E0
1.136739223E1,-1.984579563E-1,1.539390564E0,4.276176453E0
1.137532680E1,-2.033716440E-1,1.522199869E0,3.888431549E0
1.138332241E1,-8.184468746E-2,1.414437532E0,3.567095757E0
1.139122646E1,1.627053022E-1,1.347691774E0,3.365488052E0
1.139909999E1,4.128174782E-1,1.248693943E0,3.612693787E0
1.140700405E1,7.378207445E-1,1.200165749E0,4.084896088E0
1.141490810E1,1.078861237E0,1.212229490E0,4.625196457E0
1.142287319E1,1.435816050E0,1.312325954E0,4.748869896E0
1.143080776E1,1.885988355E0,1.596935749E0,4.457210541E0
1.143874233E1,2.005992413E0,1.674882650E0,4.236209869E0
1.144667690E1,1.921524644E0,1.601000309E0,4.042272568E0
1.145461147E1,1.905885577E0,1.277312279E0,3.770068169E0
1.146260707E1,1.988382697E0,7.580339909E-1,3.583959579E0
1.147051113E1,1.850139380E0,1.336395741E-1,3.665949821E0
1.147844570E1,1.645438910E0,-4.286906719E-1,3.860570908E0
1.148634975E1,7.071332932E-1,-1.016993761E0,4.156312943E0
1.149428432E1,1.031669259E0,-1.741071701E0,4.811751366E0
1.150224941E1,1.262740374E0,-2.166862488E0,5.003347397E0
1.151015346E1,1.193759918E0,-2.446085215E0,4.577705383E0
1.151805751E1,1.368729711E0,-2.552825928E0,3.697064400E0
1.152602260E1,1.285195947E0,-2.560787678E0,2.435043335E0
1.153389614E1,1.144568801E0,-2.402211189E0,7.434558868E-1
1.154192226E1,9.004405737E-1,-2.219529629E0,-6.806945801E-1
1.154982631E1,8.514446020E-1,-2.051574230E0,-1.748945713E0
1.155769985E1,9.428833723E-1,-2.008048296E0,-2.373167515E0
1.156560390E1,1.195681930E0,-1.876109362E0,-2.646629333E0
1.157347744E1,1.239035726E0,-1.762267113E0,-2.553258896E0
1.158144252E1,1.285335064E0,-1.725347996E0,-2.460515976E0
1.158937709E1,1.055601478E0,-1.578625679E0,-2.437445641E0
1.159731166E1,1.442012429E0,-2.044617891E0,-1.702362537E0
1.160521572E1,1.348486185E0,-2.141427040E0,-1.614672184E0
1.161315029E1,1.093289256E0,-2.284876823E0,-1.564303398E0
1.162114589E1,8.303591013E-1,-2.316948652E0,-1.099599838E0
1.162911098E1,7.540951967E-1,-2.704475880E0,-5.999355316E-1
1.163701503E1,5.878796577E-1,-2.739719629E0,-5.631542206E-1
1.164498012E1,2.962669134E-1,-2.861291409E0,-5.450849533E-1
1.165291469E1,1.200964451E-1,-2.842305660E0,-4.789180756E-1
1.166084926E1,-8.337461948E-2,-2.914656162E0,-4.740171432E-1
1.166881435E1,-3.580481410E-1,-2.886310339E0,-5.434217453E-1
1.167671840E1,-5.020029545E-1,-2.710243702E0,-8.542165756E-1
1.168468349E1,-8.151311278E-1,-2.486070156E0,-1.621227264E0
1.169264858E1,-6.302420497E-1,-2.270508766E0,-2.539868832E0
1.170064418E1,-9.712396860E-1,-2.137421131E0,-3.096826077E0
1.170851772E1,-8.682036400E-1,-1.869148135E0,-3.369640350E0
1.171645229E1,-8.670011759E-1,-1.724538803E0,-3.806461811E0
1.172435634E1,-5.851569772E-1,-1.444059849E0,-4.189810753E0
1.173226040E1,-4.329535067E-1,-1.293273211E0,-4.379292488E0
1.174025600E1,-3.550139666E-1,-1.079127312E0,-4.320767403E0
1.174822109E1,-3.600054979E-1,-9.377434254E-1,-4.083925247E0
1.175609462E1,-3.241547346E-1,-7.808539867E-1,-3.680750370E0
1.176399868E1,-3.093280196E-1,-6.872487068E-1,-3.096187592E0
1.177190273E1,-5.172579885E-1,-5.653910637E-1,-2.379872799E0
1.177986782E1,-6.183137894E-1,-3.902714252E-1,-1.834422588E0
1.178783290E1,-5.560619831E-1,-3.129034042E-1,-1.366296768E0
1.179573696E1,-3.676389754E-1,-1.489846706E-1,-9.514245987E-1
1.180367153E1,-2.537180781E-1,-5.975270271E-2,-7.402992249E-1
1.181160610E1,-1.033102870E-1,1.107773781E-1,-6.405687332E-1
1.181957119E1,1.744249463E-2,1.376616955E-1,-5.503702164E-1
1.182753627E1,1.875848770E-1,2.755975723E-1,-1.215362549E-1
1.183544033E1,1.495409906E-1,4.501433372E-1,7.096176147E-1
1.184340541E1,1.275514364E-1,6.521439552E-1,1.726373672E0
1.185133999E1,5.155214667E-2,7.654633522E-1,2.410802841E0
1.185930507E1,-2.041081786E-1,8.477628231E-1,3.048840523E0
1.186720912E1,-2.959726751E-1,9.563562870E-1,3.672688484E0
1.187511318E1,-3.175982237E-1,1.008081198E0,4.271171570E0
1.188307827E1,-2.912994027E-1,1.020616055E0,4.632842064E0
1.189104335E1,-4.049171805E-1,1.021425724E0,4.734382629E0
1.189897792E1,-6.596828103E-1,9.114050865E-1,4.509233475E0
1.190691249E1,-9.338331819E-1,7.732038498E-1,4.154276848E0
1.191481655E1,-1.157209516E0,5.872678757E-1,3.737126350E0
1.192272060E1,-1.414111853E0,4.302766323E-1,3.192035675E0
1.193062465E1,-1.483320355E0,2.644493580E-1,2.850373268E0
1.193862026E1,-1.517292380E0,2.216975689E-1,2.832978249E0
1.194652431E1,-1.479983568E0,2.412261963E-1,2.997741699E0
1.195439785E1,-1.331379771E0,4.270055294E-1,3.183559418E0
1.196236293E1,-1.162422895E0,6.391689777E-1,3.133503914E0
1.197029750E1,-1.181354761E0,7.310512066E-1,2.865816116E0
1.197826259E1,-1.110712171E0,7.056310177E-1,2.185147285E0
1.198616664E1,-1.056798220E0,2.348933220E-1,1.709386826E0
1.199410122E1,-1.057430983E0,-2.678854465E-1,1.419023514E0
1.200197475E1,-1.185122013E0,-8.981797695E-1,1.374965668E0
1.200990932E1,-1.362297058E0,-1.521818161E0,1.987765312E0
1.201787441E1,-1.564543128E0,-2.145703316E0,2.900415421E0
1.202577846E1,-1.597041130E0,-2.470989227E0,3.740250587E0
1.203368251E1,-1.617865801E0,-2.634048939E0,4.572709084E0
1.204161708E1,-1.733755708E0,-2.665131092E0,4.684617996E0
1.204955166E1,-1.868975043E0,-2.608313560E0,3.990515709E0
1.205751674E1,-1.814732075E0,-2.576450825E0,2.599483490E0
1.206539028E1,-1.841150999E0,-2.311684847E0,1.010329247E0
1.207329433E1,-1.976534367E0,-2.151143074E0,-4.357318878E-1
1.208116787E1,-1.872791290E0,-2.045225382E0,-1.715682507E0
1.208910244E1,-1.743247032E0,-1.897643328E0,-2.921809196E0
1.209706752E1,-1.534232974E0,-1.791857719E0,-3.449688911E0
1.210503261E1,-1.459573150E0,-1.775260448E0,-3.217037678E0
1.211290615E1,-1.149363279E0,-1.654135704E0,-2.571756840E0
1.212081020E1,-8.063325882E-1,-1.852832317E0,-1.751285553E0
1.212871425E1,-5.250579715E-1,-1.952731371E0,-1.155007839E0
1.213667934E1,-2.574453652E-1,-1.954574347E0,-8.194046021E-1
1.214461391E1,4.780820012E-2,-1.984561205E0,-6.753864288E-1
1.215257900E1,2.467516959E-1,-1.963405132E0,-8.908700943E-1
1.216048305E1,2.812237144E-1,-1.896129370E0,-1.310079098E0
1.216838710E1,2.355822027E-1,-1.889026880E0,-1.705157757E0
1.217638271E1,2.350139022E-1,-1.887371063E0,-2.093795300E0
1.218428676E1,-2.806667984E-2,-1.924325943E0,-2.617399216E0
1.219216030E1,-4.163257778E-2,-1.957633734E0,-2.971585751E0
1.220006435E1,-1.442584395E-2,-2.050269127E0,-3.272042751E0
1.220796840E1,7.386952639E-4,-2.086074352E0,-3.459463596E0
1.221596401E1,9.042977542E-2,-2.107295036E0,-3.529438496E0
1.222386806E1,1.804332882E-1,-2.067638159E0,-3.522980213E0
1.223174160E1,3.688507080E-1,-2.124187231E0,-3.184262753E0
1.223964565E1,4.862101078E-1,-2.003073692E0,-2.583067417E0
1.224754970E1,4.693501890E-1,-1.811803102E0,-1.938728333E0
1.225548427E1,5.184572935E-1,-1.579033613E0,-1.173695564E0
1.226341884E1,4.769447446E-1,-1.396607161E0,-6.616640091E-1
1.227135341E1,2.581002116E-1,-1.163267374E0,-6.032257080E-1
1.227925746E1,2.583453059E-2,-9.933104515E-1,-9.575872421E-1
1.228719204E1,-2.428070307E-1,-6.791992188E-1,-1.841247082E0
1.229515712E1,-4.070810676E-1,-4.094905853E-1,-2.702239037E0
1.230306118E1,-5.130206943E-1,-9.468626976E-2,-3.126196861E0
1.231093471E1,-6.871266961E-1,8.488512039E-2,-3.249827862E0
1.231883876E1,-7.208193541E-1,1.746079922E-1,-3.129130840E0
1.232674282E1,-8.068852425E-1,1.666722298E-1,-2.610255241E0
1.233470790E1,-7.593737841E-1,2.074155807E-1,-1.836036682E0
1.234267299E1,-6.756685972E-1,2.415900230E-1,-6.436214447E-1
1.235054653E1,-4.256545305E-1,4.701020718E-1,8.208866119E-1
1.235845058E1,-3.178926706E-1,7.156174183E-1,2.375124931E0
1.236635463E1,-2.038398683E-1,1.047385216E0,3.499119759E0
1.237435024E1,-2.052807510E-1,1.276326418E0,4.001035690E0
1.238234584E1,-3.197878599E-2,1.459577084E0,3.951553345E0
1.239021938E1,1.386167407E-1,1.575930834E0,3.593551636E0
1.239812343E1,2.638832927E-1,1.655658484E0,2.984347343E0
1.240602749E1,4.749455452E-1,1.687935352E0,2.462627411E0
1.241402309E1,7.306027412E-1,1.546701670E0,2.158020020E0
1.242192714E1,8.952300549E-1,1.369709253E0,2.281993866E0
1.242980068E1,1.149787307E0,1.206748009E0,2.922451973E0
1.243770473E1,1.291519880E0,1.185679674E0,3.999197006E0
1.244557827E1,1.451124787E0,1.125862360E0,4.745966911E0
1.245354335E1,1.876256704E0,1.183571339E0,5.145487785E0
1.246147792E1,2.358900785E0,1.379112482E0,5.201579094E0
1.246935146E1,2.401713371E0,1.415846586E0,4.957677841E0
1.247725551E1,2.487735510E0,1.318901300E0,4.620334625E0
1.248515956E1,2.530779123E0,9.287769794E-1,4.289178848E0
1.249312465E1,2.398743629E0,2.718193531E-1,4.061573029E0
1.250108974E1,2.062593937E0,-4.783399105E-1,4.053887367E0
1.250899379E1,1.672189355E0,-1.150764465E0,4.114555359E0
1.251689785E1,1.222851396E0,-1.890320301E0,4.329957962E0
1.252480190E1,8.608468771E-1,-2.260879755E0,4.513917923E0
1.253276699E1,5.048866272E-1,-2.398078918E0,4.597946167E0
1.254073207E1,2.811616659E-1,-2.332367659E0,4.245923042E0
1.254863613E1,3.377262354E-1,-2.339175463E0,3.223912239E0
1.255660122E1,4.537439346E-1,-2.336911440E0,1.739927292E0
1.256453578E1,5.269113779E-1,-2.210137844E0,3.311624527E-1
1.257253139E1,5.345114470E-1,-2.092823267E0,-1.131129742E0
1.258049648E1,4.947925806E-1,-2.018333197E0,-1.993721485E0
1.258837001E1,5.575765371E-1,-1.948674440E0,-2.296087265E0
1.259627407E1,6.097860932E-1,-1.858232975E0,-2.186124802E0
1.260417812E1,5.778326988E-1,-1.847676754E0,-2.011440277E0
1.261214321E1,6.567274332E-1,-1.926377296E0,-1.832825184E0
1.262010830E1,6.728787422E-1,-2.037901640E0,-1.664301395E0
1.262801235E1,5.627612472E-1,-2.153826475E0,-1.489974022E0
1.263591640E1,5.307163000E-1,-2.304541111E0,-1.436934471E0
1.264382045E1,4.530093670E-1,-2.450205803E0,-1.463865757E0
1.265181606E1,2.966789007E-1,-2.578618288E0,-1.420986176E0
1.265972011E1,8.429765701E-2,-2.689655781E0,-1.494016171E0
1.266762416E1,-2.990614176E-1,-2.795409679E0,-1.737930298E0
1.267552822E1,-6.042904258E-1,-2.820375443E0,-1.916276932E0
1.268346279E1,-8.607800007E-1,-2.837308168E0,-2.067057610E0
1.269142788E1,-1.045608044E0,-2.841388941E0,-2.362767696E0
1.269933193E1,-1.125221014E0,-2.787381887E0,-2.556905746E0
1.270720546E1,-1.167016983E0,-2.692729950E0,-2.484146595E0
1.271507900E1,-1.142824173E0,-2.562515736E0,-2.120582104E0
1.272301357E1,-1.133368373E0,-2.354830742E0,-1.583303452E0
1.273097866E1,-1.085240126E0,-2.081910849E0,-1.081631660E0
1.273891323E1,-9.460513592E-1,-1.813545942E0,-8.578128815E-1
1.274681728E1,-8.241096139E-1,-1.539148569E0,-9.203290939E-1
1.275478237E1,-6.241996884E-1,-1.252396584E0,-1.302128315E0
1.276271694E1,-4.712178707E-1,-1.110625029E0,-1.817966461E0
1.277068203E1,-3.344952166E-1,-9.630904198E-1,-2.562970638E0
1.277858608E1,-3.289096057E-1,-8.430345058E-1,-3.200509548E0
1.278652065E1,-3.717992008E-1,-7.201037407E-1,-3.413560867E0
1.279439418E1,-3.357750177E-1,-5.744760036E-1,-3.280271530E0
1.280232875E1,-3.512211740E-1,-4.026098251E-1,-2.935301781E0
1.281029384E1,-4.606509209E-1,-3.979220390E-1,-2.450707436E0
1.281825893E1,-4.336475432E-1,-3.261806965E-1,-1.653197289E0
1.282619350E1,-5.131222010E-1,-3.780763149E-1,-8.179864883E-1
1.283409755E1,-5.468881130E-1,-4.226937294E-1,2.234525681E-1
1.284200161E1,-6.263387799E-1,-4.127991199E-1,1.074711800E0
1.284996669E1,-6.539829969E-1,-3.581032753E-1,1.749384880E0
1.285790126E1,-6.215865612E-1,-2.616100311E-1,2.148991585E0
1.286583583E1,-5.326794982E-1,-1.039023399E-1,2.352648735E0
1.287373989E1,-3.122104406E-1,1.486847401E-1,2.455218315E0
1.288167446E1,-2.506244183E-1,3.814196587E-1,2.478859901E0
1.288963955E1,-1.388660073E-1,6.474671364E-1,2.311017990E0
1.289757412E1,-1.317752302E-1,8.360371590E-1,1.990406990E0
1.290556972E1,-1.824570596E-1,1.002216578E0,1.530477524E0
1.291350429E1,-3.944682479E-1,1.214434385E0,1.155727386E0
1.292143886E1,-4.900420606E-1,1.295301914E0,8.162975311E-1
1.292940395E1,-5.245416164E-1,1.193890572E0,5.688161850E-1
1.293730800E1,-6.150941253E-1,1.070483446E0,5.093688965E-1
1.294521206E1,-6.899524331E-1,9.561343193E-1,7.814874649E-1
1.295317714E1,-7.920406461E-1,6.968419552E-1,1.609399796E0
1.296108120E1,-8.829544187E-1,5.019588470E-1,2.797599792E0
1.296901577E1,-9.516069293E-1,3.602395058E-1,3.726348877E0
1.297698085E1,-9.526121616E-1,2.370467186E-1,4.471427917E0
1.298485439E1,-9.666100144E-1,1.966259480E-1,4.862696648E0
1.299275844E1,-9.415910840E-1,2.986402512E-1,4.999385834E0
1.300063198E1,-8.768389821E-1,4.297933578E-1,4.894761086E0
1.300859706E1,-9.816401005E-1,5.059423447E-1,4.450791359E0
1.301653164E1,-1.156589389E0,3.634898663E-1,3.696569443E0
1.302446621E1,-1.146770358E0,2.041869164E-1,2.891499519E0
1.303240078E1,-1.134299159E0,-1.925492287E-2,2.421285629E0
1.304030483E1,-1.213880301E0,-3.487420082E-1,2.066570282E0
1.304830043E1,-1.195915461E0,-7.435100079E-1,2.134026527E0
1.305626552E1,-1.265263438E0,-1.177835941E0,2.615543365E0
1.306416957E1,-1.244053125E0,-1.561382055E0,3.150991440E0
1.307213466E1,-1.295805693E0,-1.870345592E0,3.682659149E0
1.308006923E1,-1.486745834E0,-1.993965864E0,3.793423653E0
1.308803432E1,-1.775178075E0,-2.049506664E0,3.271004677E0
1.309593837E1,-2.079133034E0,-2.167286873E0,2.065716743E0
1.310387294E1,-2.276036739E0,-2.244433403E0,4.961452484E-1
1.311174648E1,-2.322165012E0,-2.083321571E0,-1.038298130E0
1.311968105E1,-2.377487421E0,-1.996874332E0,-2.019182205E0
1.312767666E1,-2.288611412E0,-1.918308020E0,-2.812537193E0
1.313564174E1,-2.242621899E0,-1.799582005E0,-3.175276756E0
1.314351528E1,-2.070392370E0,-1.771340847E0,-3.263689995E0
1.315141933E1,-1.723549008E0,-1.767134190E0,-3.189806938E0
1.315932338E1,-1.254804373E0,-1.782876730E0,-3.023206711E0
1.316728847E1,-7.383855581E-1,-1.809278727E0,-2.592232704E0
1.317522304E1,-3.593038619E-1,-1.796269655E0,-2.007790089E0
1.318315761E1,6.828925014E-2,-1.780596256E0,-1.392792702E0
1.319103115E1,4.733006954E-1,-1.771391153E0,-9.654073715E-1
1.319896572E1,7.707527876E-1,-1.777017117E0,-7.311840057E-1
1.320693080E1,8.885086179E-1,-1.715852976E0,-3.707618713E-1
1.321483486E1,9.959522486E-1,-1.659045696E0,1.428442001E-1
1.322270839E1,1.191482425E0,-1.589524269E0,4.747238159E-1
1.323061245E1,1.080707788E0,-1.563021421E0,2.945079803E-1
1.323851650E1,8.986217976E-1,-1.572472811E0,-5.142993927E-1
1.324648159E1,6.738926768E-1,-1.664051056E0,-1.940049648E0
1.325438564E1,5.750844479E-1,-1.736069918E0,-3.143299580E0
1.326225917E1,5.095819235E-1,-1.728024960E0,-3.869999409E0
1.327016323E1,4.388197362E-1,-1.757121325E0,-4.345722198E0
1.327806728E1,3.622692823E-1,-1.732070684E0,-4.664939404E0
1.328606289E1,2.875076234E-1,-1.690152168E0,-4.764365196E0
1.329396694E1,2.876918912E-1,-1.612313032E0,-4.430825710E0
1.330184047E1,1.810705662E-1,-1.469768286E0,-3.697795868E0
1.330974453E1,1.630225778E-1,-1.362185478E0,-3.024275780E0
1.331764858E1,1.765007675E-1,-1.192110300E0,-2.592361927E0
1.332564418E1,1.206475198E-1,-1.023805857E0,-1.800324917E0
1.333360927E1,7.172143459E-2,-9.096410275E-1,-1.137332439E0
1.334148281E1,-1.004522741E-1,-8.081634045E-1,-1.000288963E0
1.334938686E1,-4.018401206E-1,-7.206664085E-1,-1.278651237E0
1.335729091E1,-6.998447180E-1,-4.708912373E-1,-1.797229767E0
1.336525600E1,-9.701420069E-1,-2.565996647E-1,-2.037195206E0
1.337316005E1,-9.947511554E-1,3.488588333E-2,-1.881759644E0
1.338103359E1,-7.180580497E-1,3.753659725E-1,-1.233917713E0
1.338893764E1,-2.513906658E-1,6.754851341E-1,-1.589298248E-1
1.339681118E1,1.084370613E-1,9.213454723E-1,1.002207756E0
1.340477626E1,3.061118722E-1,1.073995352E0,2.287642479E0
1.341274135E1,3.677303195E-1,1.165488243E0,3.311051369E0
1.342061489E1,4.393062592E-1,1.188150883E0,3.966722488E0
1.342851894E1,4.751099944E-1,1.186382294E0,4.363622665E0
1.343645351E1,3.799043894E-1,1.211176634E0,4.564570427E0
1.344444912E1,2.480282187E-1,1.238636494E0,4.324748039E0
1.345235317E1,8.577352762E-2,1.232142925E0,3.824506760E0
1.346022670E1,-1.120032668E-1,1.082968473E0,3.403281212E0
1.346813076E1,-3.271579146E-1,1.014093399E0,2.999228477E0
1.347606533E1,-3.789355755E-1,9.633009434E-1,2.814960480E0
1.348406093E1,-2.405291796E-1,8.940570354E-1,2.927933693E0
1.349196499E1,1.520165801E-1,7.995107174E-1,3.390742302E0
1.349986904E1,5.606632233E-1,7.890231609E-1,3.878211021E0
1.350777309E1,1.128040314E0,8.938615322E-1,4.240593910E0
1.351564662E1,1.674250364E0,1.397355080E0,4.132192612E0
1.352358120E1,1.679363012E0,1.817848682E0,3.410313606E0
1.353154628E1,1.598504663E0,1.650126934E0,2.508700371E0
1.353941982E1,1.402741790E0,1.162722826E0,1.894821167E0
1.354732387E1,9.334644079E-1,2.453746796E-1,1.725124359E0
1.355522792E1,5.079442263E-1,-7.779386044E-1,1.920522690E0
1.356322353E1,7.850706577E-2,-1.704920292E0,2.397671700E0
1.357112758E1,-2.902190089E-1,-2.164263964E0,3.249549866E0
1.357903164E1,-7.157356739E-1,-2.365327835E0,4.322257996E0
1.358696621E1,-8.667145967E-1,-2.480844975E0,4.930549622E0
1.359490078E1,-7.232472897E-1,-2.476666451E0,4.908145905E0
1.360289638E1,-3.230069280E-1,-2.531702042E0,3.875715256E0
1.361086147E1,-5.036014318E-2,-2.582609177E0,2.210362434E0
1.361873500E1,-4.529660940E-2,-2.368955612E0,3.054676056E-1
1.362663906E1,-1.083426476E-1,-2.054086685E0,-1.278309822E0
1.363454311E1,-1.386482716E-1,-1.752010822E0,-2.716092110E0
1.364250820E1,-1.665279269E-1,-1.570214748E0,-3.483554363E0
1.365044277E1,-3.609305620E-2,-1.457434416E0,-3.723104000E0
1.365837734E1,1.754581928E-2,-1.495674610E0,-3.705952644E0
1.366631191E1,5.254667997E-2,-1.564698696E0,-3.350978374E0
1.367421596E1,7.789826393E-2,-1.689317703E0,-3.007201672E0
1.368215053E1,9.189504385E-2,-1.820876837E0,-2.890134811E0
1.369011562E1,5.556792021E-2,-1.993993044E0,-2.620789051E0
1.369798916E1,9.849071503E-3,-2.073484898E0,-2.164764881E0
1.370592373E1,-4.759511054E-1,-1.918604374E0,-1.638876438E0
1.371382778E1,-1.382843256E-1,-2.125355005E0,-1.168106079E0
1.372179287E1,1.175006032E-1,-2.321099281E0,-7.564229965E-1
1.372966640E1,2.171724439E-1,-2.452516794E0,-1.096197128E0
1.373757045E1,-1.838108897E-1,-2.323367119E0,-1.446761608E0
1.374553554E1,-4.077443779E-1,-2.266436100E0,-1.682319641E0
1.375347011E1,-5.234280825E-1,-2.329140663E0,-2.040207386E0
1.376140468E1,-6.136094332E-1,-2.277123690E0,-2.329849720E0
1.376930874E1,-8.269748688E-1,-2.140528202E0,-2.578156948E0
1.377721279E1,-1.105153084E0,-1.816518068E0,-2.510743618E0
1.378517788E1,-1.173061728E0,-1.485911131E0,-2.020271301E0
1.379311245E1,-1.014143705E0,-1.248223782E0,-1.174302101E0
1.380110805E1,-6.975515485E-1,-1.059266329E0,-4.047956467E-1
1.380907314E1,-3.818892837E-1,-8.582832813E-1,1.028003693E-1
1.381694667E1,-9.708362818E-2,-5.438985825E-1,1.453485489E-1
1.382488124E1,6.905531883E-2,-3.145470619E-1,-3.561086655E-1
1.383281582E1,7.875627279E-2,-1.467986107E-1,-9.375867844E-1
1.384081142E1,6.137713790E-2,8.107113838E-2,-1.701443672E0
1.384877651E1,-7.475304604E-2,2.552435398E-1,-2.387634277E0
1.385668056E1,-1.834197640E-1,4.130396843E-1,-3.018802643E0
1.386461513E1,-5.533351898E-1,5.396246910E-1,-3.262180328E0
1.387254970E1,-4.097498655E-1,5.435786247E-1,-3.086032391E0
1.388051479E1,-8.217108250E-1,7.166430950E-1,-2.459618568E0
1.388841884E1,-9.600408077E-1,6.862576008E-1,-1.358703136E0
1.389629238E1,-9.384259582E-1,6.698000431E-1,3.819866180E-1
1.390419643E1,-7.320454121E-1,5.872764587E-1,2.401254654E0
1.391210048E1,-4.469819963E-1,5.878596306E-1,4.103975296E0
1.392003505E1,-2.793472409E-1,6.478710175E-1,5.160946846E0
1.392800014E1,-1.701115072E-1,7.691059113E-1,5.681076050E0
1.393587368E1,-1.926017106E-1,8.224725723E-1,5.346813202E0
1.394377773E1,-2.196915448E-1,8.006079197E-1,4.760166168E0
1.395168178E1,-3.382790685E-1,7.321512699E-1,4.038213730E0
1.395967739E1,-7.153080702E-1,5.602872372E-1,3.134389877E0
1.396761196E1,-9.569957256E-1,4.907557964E-1,2.141215324E0
1.397554653E1,-1.234188080E0,3.503389359E-1,1.441565514E0
1.398342006E1,-1.417841196E0,1.694033146E-1,9.403104782E-1
1.399135463E1,-1.677605271E0,3.242135048E-2,9.691390991E-1
1.399931972E1,-1.830864668E0,2.583980560E-3,1.722452164E0
1.400728481E1,-1.853775501E0,-9.660673141E-2,2.492607117E0
1.401518886E1,-1.567994595E0,-1.610918045E-1,3.165882111E0
1.402312343E1,-1.116114736E0,2.969384193E-2,3.657890320E0
1.403105800E1,-8.982482553E-1,3.215539455E-1,3.936614990E0
1.403902309E1,-8.859588504E-1,2.511551380E-1,4.386722565E0
1.404692714E1,-9.161408544E-1,9.969663620E-2,4.399489403E0
1.405483120E1,-8.123444915E-1,-2.095189095E-1,3.760251045E0
1.406279628E1,-7.756759524E-1,-4.845323563E-1,2.953659058E0
1.407073085E1,-7.477417588E-1,-9.418079853E-1,2.447247505E0
1.407869594E1,-7.782685161E-1,-1.408936024E0,2.333360672E0
1.408666103E1,-7.615687251E-1,-1.721314669E0,2.346471786E0
1.409456508E1,-6.186841130E-1,-1.815085411E0,2.435925484E0
1.410253017E1,-5.205993056E-1,-1.783581734E0,2.641271591E0
1.411046474E1,-4.395012259E-1,-1.683993578E0,2.681272507E0
1.411846035E1,-4.787079096E-1,-1.538751364E0,2.106418610E0
1.412642543E1,-7.224440575E-1,-1.440351486E0,1.496062279E0
1.413429897E1,-5.612305403E-1,-1.253881454E0,2.838230133E-1
1.414220302E1,-9.621080160E-1,-1.165434361E0,-8.612995148E-1
1.415010707E1,-7.993962169E-1,-1.140863895E0,-1.699891090E0
1.415810268E1,-7.603619099E-1,-1.248983383E0,-2.650119781E0
1.416600673E1,-5.583465695E-1,-1.353014231E0,-2.915874481E0
1.417388027E1,-4.160838723E-1,-1.528538465E0,-2.834181309E0
1.418184536E1,-3.554649949E-1,-1.693109512E0,-2.456676483E0
1.418974941E1,-2.641964555E-1,-1.894425631E0,-1.942227840E0
1.419771450E1,-8.044803143E-2,-2.006645203E0,-1.481688023E0
1.420558803E1,8.114260435E-2,-2.069226503E0,-1.213265419E0
1.421346157E1,2.613211870E-1,-2.048075199E0,-1.041436195E0
1.422136562E1,4.158141017E-1,-1.978371620E0,-1.049189568E0
1.422926967E1,5.322437286E-1,-1.926337838E0,-1.202260494E0
1.423723476E1,5.163137317E-1,-1.866882205E0,-1.363644123E0
1.424519985E1,4.673426747E-1,-1.837297320E0,-1.726736546E0
1.425307338E1,4.847659469E-1,-1.821172833E0,-2.185139656E0
1.426100795E1,5.124619007E-1,-1.790122390E0,-2.591343880E0
1.426891201E1,4.644166827E-1,-1.740481734E0,-3.017731190E0
1.427690761E1,5.225071907E-1,-1.705587506E0,-3.318374157E0
1.428484218E1,5.419760346E-1,-1.638668299E0,-3.625532627E0
1.429274624E1,5.631687045E-1,-1.569489002E0,-3.729073048E0
1.430068080E1,5.271310806E-1,-1.513589859E0,-3.658180237E0
1.430861538E1,4.896180332E-1,-1.408470631E0,-3.475145817E0
1.431658046E1,4.416019022E-1,-1.231092453E0,-3.294444084E0
1.432454555E1,3.910597563E-1,-1.135655642E0,-3.106029510E0
1.433241909E1,3.450328708E-1,-1.036749125E0,-2.904766083E0
1.434032314E1,4.012193084E-1,-8.728113174E-1,-2.458154678E0
1.434819667E1,3.248799145E-1,-7.249236107E-1,-1.869329929E0
1.435619228E1,1.462028027E-1,-4.320571423E-1,-1.214301586E0
1.436415737E1,-9.420329332E-2,-2.310330868E-1,-1.030136108E0
1.437206142E1,-2.952495217E-1,-8.276128769E-2,-1.202296734E0
1.437999599E1,-3.242914975E-1,1.318547726E-1,-1.328401566E0
1.438793056E1,-4.121466279E-1,3.506443501E-1,-1.328806400E0
1.439592617E1,-3.579052389E-1,5.520980358E-1,-1.290534019E0
1.440379970E1,-2.632706463E-1,5.984027386E-1,-1.099981785E0
1.441173427E1,-2.260473073E-1,6.535477638E-1,-7.504930496E-1
1.441960781E1,-4.048712254E-1,7.062325478E-1,-2.064132690E-1
1.442760341E1,-4.180101454E-1,8.392682076E-1,6.179418564E-1
1.443559902E1,-4.805515409E-1,9.356148243E-1,1.539234161E0
1.444350307E1,-4.404918849E-1,9.163477421E-1,2.322931290E0
1.445140712E1,-3.180440664E-1,8.720088005E-1,3.372373581E0
1.445931118E1,-1.785809994E-1,9.972023964E-1,4.089623451E0
1.446718471E1,-1.923186183E-1,1.047142267E0,4.425449371E0
1.447518032E1,-1.382743120E-1,1.146261215E0,4.535436630E0
1.448308437E1,-3.515547514E-2,1.157706499E0,4.302379608E0
1.449095790E1,1.783481836E-1,1.058021784E0,3.962944984E0
1.449889248E1,3.872259855E-1,9.722499847E-1,3.719408035E0
1.450682705E1,7.248405218E-1,9.402687550E-1,3.578351021E0
1.451479213E1,9.725011587E-1,9.666342735E-1,3.560482025E0
1.452266567E1,1.279407740E0,1.191941261E0,3.592041969E0
1.453056972E1,1.723451376E0,1.821748018E0,3.433898926E0
1.453853481E1,1.924611330E0,2.218291521E0,3.091478348E0
1.454646938E1,1.938512564E0,1.937106848E0,2.675194740E0
1.455443447E1,1.778368831E0,1.332454681E0,2.516659737E0
1.456239956E1,1.396961689E0,4.946842194E-1,2.793787003E0
1.457027309E1,1.007078886E0,-3.378005028E-1,3.524375916E0
1.457817714E1,5.267739296E-1,-1.179488897E0,4.372642517E0
1.458608120E1,1.585031748E-1,-1.726021290E0,5.125306129E0
1.459407680E1,-3.583621979E-1,-1.990178704E0,5.919610023E0
1.460198085E1,-6.519145370E-1,-1.997242570E0,6.257433891E0
1.460985439E1,-5.980888009E-1,-2.049485207E0,5.890041351E0
1.461775844E1,-2.545520067E-1,-2.133220911E0,4.678056717E0
1.462569301E1,-2.477927804E-1,-1.968312860E0,3.002232552E0
1.463368862E1,3.502135277E-1,-2.077236652E0,1.259140015E0
1.464165371E1,1.680412292E-1,-1.774003267E0,-3.352832794E-2
1.464952724E1,4.935556650E-2,-1.684896231E0,-9.254846573E-1
1.465743129E1,-1.612569690E-1,-1.648554802E0,-1.689105511E0
1.466533535E1,-3.693438172E-1,-1.546278954E0,-1.893175125E0
1.467333095E1,-4.085939527E-1,-1.500414371E0,-1.850029469E0
1.468123500E1,-5.096558332E-1,-1.560582161E0,-1.974906445E0
1.468910854E1,-5.048905015E-1,-1.757086992E0,-1.865018368E0
1.469701259E1,-3.636659086E-1,-1.959594488E0,-1.834588051E0
1.470494716E1,-3.969279528E-1,-2.121500492E0,-2.002542496E0
1.471291225E1,-2.451964021E-1,-2.340178967E0,-2.162995815E0
1.472081630E1,-2.818630636E-1,-2.513462543E0,-2.275862694E0
1.472872036E1,-3.606402874E-1,-2.524916172E0,-2.355944633E0
1.473665493E1,-5.374411345E-1,-2.603125095E0,-2.541785717E0
1.474458950E1,-7.995315790E-1,-2.680790663E0,-2.622900009E0
1.475255458E1,-9.359623194E-1,-2.645299673E0,-2.707082748E0
1.476045864E1,-1.105183959E0,-2.596106768E0,-2.954596996E0
1.476839321E1,-1.295256019E0,-2.457364082E0,-2.989357948E0
1.477629726E1,-1.409253836E0,-2.176344395E0,-3.058200359E0
1.478420131E1,-1.475173354E0,-1.869502425E0,-3.004890919E0
1.479219692E1,-1.645064831E0,-1.589200974E0,-2.913407326E0
1.480010097E1,-1.615826607E0,-1.377454519E0,-2.701867104E0
1.480800502E1,-1.505715013E0,-1.236520767E0,-2.394043446E0
1.481593959E1,-1.288362741E0,-1.154119253E0,-1.945991516E0
1.482387416E1,-9.163131714E-1,-1.062164545E0,-1.270846844E0
1.483186977E1,-6.700072289E-1,-9.009850025E-1,-9.853067398E-1
1.483983486E1,-5.657921433E-1,-8.643879890E-1,-1.309296608E0
1.484773891E1,-4.460442960E-1,-6.675426960E-1,-1.913213253E0
1.485567348E1,-4.453188777E-1,-5.119326115E-1,-2.783437729E0
1.486360805E1,-4.313228130E-1,-3.325417042E-1,-3.513952255E0
1.487160366E1,-4.788001776E-1,-2.226228714E-1,-3.873029232E0
1.487956874E1,-5.847505927E-1,-9.437274933E-2,-3.862360477E0
1.488744228E1,-5.571867228E-1,5.821013451E-2,-3.403050900E0
1.489534633E1,-5.080635548E-1,1.766021252E-1,-2.607335567E0
1.490325039E1,-5.549366474E-1,2.202348709E-1,-1.512280941E0
1.491121547E1,-5.302588344E-1,3.901484013E-1,-8.240127563E-2
1.491921108E1,-5.020255446E-1,5.969710350E-1,1.226364136E0
1.492714565E1,-4.793453813E-1,7.094509602E-1,2.305787086E0
1.493504970E1,-2.179290354E-1,7.571954727E-1,2.973344803E0
1.494295375E1,-2.013824135E-2,9.003674984E-1,3.306853294E0
1.495094936E1,-3.214299679E-3,9.583759308E-1,3.530456543E0
1.495885341E1,-1.791693270E-2,1.016248703E0,3.467908859E0
1.496675746E1,-2.409398556E-2,9.111967087E-1,2.992256165E0
1.497466152E1,-3.475245833E-2,8.205440044E-1,2.510696411E0
1.498256557E1,-1.553166509E-1,7.889823914E-1,2.002167702E0
1.499053066E1,-2.819197476E-1,5.837628841E-1,1.923033714E0
1.499849575E1,-2.906169593E-1,4.009325504E-1,2.298586845E0
1.500636928E1,-4.614411592E-1,1.571526527E-1,2.726407051E0
1.501427333E1,-4.833568037E-1,1.604700089E-2,3.093589783E0
1.502217739E1,-6.119961739E-1,4.678130150E-2,3.589363098E0
1.503017299E1,-7.169873118E-1,3.045649529E-1,4.059291840E0
1.503807705E1,-9.478248358E-1,1.350491047E-1,4.658137321E0
1.504595058E1,-8.375711441E-1,-3.179173470E-1,5.024109840E0
1.505385463E1,-5.626096129E-1,-7.327406406E-1,5.264313698E0
1.506175869E1,-5.745785236E-1,-1.050337791E0,5.199311256E0
1.506975429E1,-7.049927711E-1,-1.294512510E0,4.739217758E0
1.507765834E1,-6.995008588E-1,-1.441324949E0,4.089520454E0
1.508553188E1,-6.641671062E-1,-1.784284115E0,3.768363953E0
1.509343593E1,-6.173257828E-1,-1.787066221E0,3.864445686E0
1.510133999E1,-6.895617843E-1,-1.736344099E0,3.821640015E0
1.510927456E1,-7.117077112E-1,-1.648558855E0,3.417182922E0
1.511723964E1,-7.141015530E-1,-1.569044113E0,2.865502357E0
1.512511318E1,-9.011055231E-1,-1.448066950E0,2.130062103E0
1.513301723E1,-1.150825620E0,-1.371718645E0,1.206291199E0
1.514092128E1,-1.318576217E0,-1.301478148E0,-3.751182556E-2
1.514891689E1,-1.533170819E0,-1.240799665E0,-1.119174004E0
1.515682094E1,-1.634026051E0,-1.220494270E0,-1.601685047E0
1.516469448E1,-1.701716661E0,-1.366998434E0,-1.755797386E0
1.517259853E1,-1.773692727E0,-1.435709953E0,-1.450769901E0
1.518050258E1,-1.692816257E0,-1.506699085E0,-8.110504150E-1
1.518843715E1,-1.451002955E0,-1.627379656E0,-1.554660797E-1
1.519634121E1,-1.085115433E0,-1.720351934E0,3.683757782E-1
1.520424526E1,-7.859233618E-1,-1.765306950E0,4.912996292E-1
1.521214931E1,-5.940957665E-1,-1.764793158E0,2.931566238E-1
1.522003399E1,-3.360733688E-1,-1.714924097E0,-5.417251587E-2
1.522802960E1,-1.350255907E-1,-1.615676880E0,-4.204893112E-1
1.523599469E1,7.090270519E-4,-1.485880375E0,-7.379875183E-1
1.524386822E1,1.073909849E-1,-1.384523392E0,-1.054947853E0
1.525180279E1,2.584957480E-1,-1.309788465E0,-1.622563362E0
1.525973736E1,3.615805805E-1,-1.279352903E0,-2.246543407E0
1.526773297E1,5.321341157E-1,-1.303554058E0,-2.887750626E0
1.527563702E1,6.519199014E-1,-1.313603640E0,-3.360113621E0
1.528354107E1,7.381118536E-1,-1.324119568E0,-3.767457485E0
1.529150616E1,6.498973370E-1,-1.350602865E0,-4.045653820E0
1.529944073E1,5.154299736E-1,-1.450721502E0,-4.152517319E0
1.530740582E1,4.318564534E-1,-1.534025192E0,-4.264979839E0
1.531530987E1,3.915786445E-1,-1.605494022E0,-4.174639225E0
1.532321393E1,3.043373227E-1,-1.653122187E0,-3.934158325E0
1.533111798E1,2.962035239E-1,-1.712770462E0,-3.681445599E0
1.533905255E1,2.564766407E-1,-1.582693577E0,-3.537934780E0
1.534704815E1,2.275638878E-1,-1.586804390E0,-3.428219795E0
1.535501324E1,1.906969249E-1,-1.439741135E0,-3.371610165E0
1.536288678E1,1.237248778E-1,-1.216827631E0,-3.334214211E0
1.537079083E1,5.494856834E-2,-9.751217365E-1,-3.420142174E0
1.537869488E1,5.058774352E-2,-7.804455757E-1,-3.333000183E0
1.538665997E1,-5.106630921E-2,-6.117067337E-1,-3.111979961E0
1.539462506E1,-1.451565325E-1,-4.436774254E-1,-2.582854271E0
1.540249859E1,-2.723612189E-1,-3.976285458E-1,-1.959096432E0
1.541040265E1,-3.331913948E-1,-2.888731956E-1,-1.195466042E0
1.541830670E1,-4.511540234E-1,-1.971585751E-1,-4.903202057E-1
1.542630230E1,-5.108813047E-1,-1.058564186E-1,2.976112366E-1
1.543417584E1,-6.351135969E-1,1.265840530E-1,1.084428787E0
1.544207989E1,-8.365678787E-1,4.033648968E-1,1.705563545E0
1.544998394E1,-8.875464201E-1,6.399343014E-1,2.178238869E0
1.545785748E1,-6.981176138E-1,8.086719513E-1,2.400298119E0
1.546579205E1,-3.222375512E-1,9.159526825E-1,2.359287262E0
1.547372662E1,-1.676322818E-1,1.051682949E0,2.158570290E0
1.548160016E1,2.926498652E-2,1.156781435E0,1.905376434E0
1.548950421E1,2.036858797E-1,1.051331520E0,1.991556168E0
1.549740826E1,2.874190807E-1,9.034972191E-1,2.234043121E0
1.550537335E1,3.126828074E-1,8.036344051E-1,2.714379311E0
1.551327740E1,4.513616562E-1,7.691295147E-1,3.618978500E0
1.552115094E1,6.171157360E-1,8.100588322E-1,4.466269493E0
1.552905499E1,8.868641257E-1,9.676730633E-1,5.059304237E0
1.553695904E1,1.169911146E0,1.416451693E0,5.597887039E0
1.554495465E1,1.214943647E0,1.708696365E0,5.525859833E0
1.555288922E1,1.322917938E0,1.629691839E0,5.097412109E0
1.556082379E1,1.544780970E0,1.322810888E0,4.419722557E0
1.556869732E1,1.453507662E0,9.248478413E-1,3.752581596E0
1.557663189E1,1.062861204E0,4.885737896E-1,3.319542885E0
1.558459698E1,6.635048985E-1,3.990077972E-2,3.379701614E0
1.559256207E1,2.957040668E-1,-6.004171371E-1,3.772386551E0
1.560043560E1,3.659820557E-2,-9.580786228E-1,4.344751358E0
1.560833966E1,-2.321035266E-1,-1.127784014E0,4.702659607E0
1.561621319E1,-1.586917639E-1,-1.252997398E0,4.970351219E0
1.562417828E1,-2.443492413E-3,-1.402009010E0,4.744736671E0
1.563214337E1,1.363876462E-1,-1.501993895E0,3.815211296E0
1.564001690E1,2.736660838E-1,-1.454638243E0,2.791133881E0
1.564792096E1,4.380581975E-1,-1.439313889E0,1.444025040E0
1.565582501E1,5.227369070E-1,-1.455271959E0,3.998136520E-1
1.566375958E1,5.963048339E-1,-1.562010527E0,-2.623710632E-1
1.567169415E1,6.713367701E-1,-1.656998873E0,-6.066970825E-1
1.567956768E1,6.757037640E-1,-1.829275131E0,-8.005781174E-1
1.568747174E1,5.659112334E-1,-1.908314705E0,-8.274660110E-1
1.569537579E1,4.191628098E-1,-2.019146442E0,-8.662176132E-1
1.570337140E1,2.580000162E-1,-2.149486542E0,-8.823099136E-1
1.571127545E1,1.409820318E-1,-2.241132736E0,-9.682855606E-1
1.571917950E1,-1.861751080E-2,-2.237346172E0,-1.140517712E0
1.572708355E1,-1.146274507E-1,-2.192499638E0,-1.216911793E0
1.573498761E1,-1.821825504E-1,-2.160176039E0,-1.374315739E0
1.574298321E1,-2.608531415E-1,-2.170254946E0,-1.645865440E0
1.575085675E1,-4.144441485E-1,-2.152306318E0,-1.916148186E0
1.575876080E1,-5.592092276E-1,-2.184402466E0,-2.295692921E0
1.576666485E1,-6.953067780E-1,-2.140386581E0,-2.837021828E0
1.577456890E1,-7.786444426E-1,-2.153627872E0,-3.276974201E0
1.578256451E1,-8.939188719E-1,-2.198729515E0,-3.691757202E0
1.579052960E1,-1.117483854E0,-2.193024158E0,-4.232599258E0
1.579840313E1,-1.187904835E0,-2.003414631E0,-4.437888622E0
1.580630719E1,-1.322467685E0,-1.812556982E0,-4.289967537E0
1.581421124E1,-1.367478490E0,-1.500085354E0,-3.690939426E0
1.582214581E1,-1.222770333E0,-1.187190294E0,-2.898779869E0
1.583001934E1,-1.008369803E0,-9.634084702E-1,-2.091780663E0
1.583795392E1,-8.410123587E-1,-7.059087753E-1,-1.587003708E0
1.584588849E1,-7.778580189E-1,-4.939391613E-1,-1.362086296E0
1.585382306E1,-5.633065104E-1,-2.946496010E-1,-1.609064102E0
1.586178814E1,-4.157198071E-1,-1.222102642E-1,-2.115788460E0
1.586969220E1,-3.268752694E-1,5.879807472E-2,-2.640263081E0
1.587756573E1,-1.483952105E-1,1.824700832E-1,-3.258741379E0
1.588546978E1,-2.854973078E-2,2.685782909E-1,-3.625164032E0
1.589337384E1,4.448825121E-2,3.059799671E-1,-3.526254654E0
1.590136944E1,2.539607882E-2,3.074100018E-1,-3.213716030E0
1.590927350E1,-8.320784569E-2,2.808547020E-1,-2.685480595E0
1.591717755E1,-2.315186858E-1,3.222198486E-1,-1.698433399E0
1.592511212E1,-3.196620941E-1,3.558807373E-1,-5.631942749E-1
1.593304669E1,-3.472605348E-1,3.976674080E-1,8.930740356E-1
1.594101178E1,-2.549915314E-1,4.231686592E-1,2.262166977E0
1.594888531E1,-8.950330317E-2,4.726049900E-1,3.280549049E0
1.595681988E1,-2.863236517E-2,6.998968124E-1,4.052841187E0
